Date,Time,Accel_X,Accel_Y,Accel_Z,Acc_Magnitude,Jerk_Magnitude,Axial_x,Axial_y,Axial_z
19/7/2026,16:33:30,452.39,-842.53,303.22,1003.22,2761.06,1098.63,1123.05,2270.51
19/7/2026,16:33:30,473.88,-848.14,352.54,1033.53,2704.26,1074.22,-280.76,2465.82
19/7/2026,16:33:30,505.62,-833.25,363.04,1040.07,1829.83,1586.92,744.63,524.9
19/7/2026,16:33:30,534.91,-841.06,295.65,1039.68,3694.52,1464.84,-390.62,-3369.14
19/7/2026,16:33:30,523.19,-818.85,316.89,1022.09,1644.74,-585.94,1110.84,1062.01
19/7/2026,16:33:30,480.96,-795.41,354.74,994.9,3068.07,-2111.81,1171.88,1892.09
19/7/2026,16:33:30,462.16,-802.25,331.79,983.5,1522.16,-939.94,-341.8,-1147.46
19/7/2026,16:33:30,459.72,-843.75,289.79,1003.61,2954.6,-122.07,-2075.19,-2099.61
19/7/2026,16:33:30,444.58,-874.02,288.57,1022.18,1693.44,-756.84,-1513.67,-61.04
19/7/2026,16:33:30,431.88,-877.93,302.25,1024.03,953.09,-634.76,-195.31,683.59
19/7/2026,16:33:30,422.36,-869.87,323.73,1019.74,1242.12,-476.08,402.83,1074.22
19/7/2026,16:33:30,442.63,-854.98,289.55,1005.36,2121.71,1013.19,744.63,-1708.98
19/7/2026,16:33:30,465.09,-841.31,276.61,1000.31,1465.3,1123.05,683.6,-646.97
19/7/2026,16:33:30,479.49,-832.52,293.7,1004.62,1200.83,720.22,439.45,854.49
19/7/2026,16:33:30,485.6,-820.56,334.72,1010.52,2157.92,305.17,598.14,2050.78
19/7/2026,16:33:30,505.13,-824.46,358.64,1031.27,1556.58,976.56,-195.31,1196.29
19/7/2026,16:33:30,519.29,-851.56,296.39,1040.51,3467.96,708.01,-1354.98,-3112.79
19/7/2026,16:33:30,493.41,-833.01,316.89,1018.71,1893.79,-1293.95,927.74,1025.39
19/7/2026,16:33:30,464.84,-830.57,327.15,1006.45,1522.36,-1428.22,122.07,512.7
19/7/2026,16:33:30,441.41,-835.45,325.68,999.44,1199.27,-1171.88,-244.14,-73.24
19/7/2026,16:33:30,445.56,-850.59,304.2,1007.25,1330.35,207.52,-756.84,-1074.22
19/7/2026,16:33:30,457.28,-852.29,290.77,1009.98,895.2,585.94,-85.45,-671.39
19/7/2026,16:33:30,458.98,-874.51,281.74,1027.04,1202.19,85.45,-1110.84,-451.66
19/7/2026,16:33:30,468.51,-848.39,315.92,1019.35,2203.02,476.07,1306.15,1708.98
19/7/2026,16:33:30,484.62,-840.58,293.46,1013.68,1436.29,805.67,390.62,-1123.05
19/7/2026,16:33:30,499.02,-824.22,311.04,1012.47,1400.03,720.21,817.87,878.91
19/7/2026,16:33:30,489.5,-795.41,337.4,993.04,2009.86,-476.07,1440.43,1318.36
19/7/2026,16:33:30,489.75,-810.79,331.54,1003.57,823.05,12.21,-769.04,-292.97
19/7/2026,16:33:30,500.49,-829.1,315.92,1018.68,1317.96,537.11,-915.53,-781.25
19/7/2026,16:33:30,502.44,-852.78,301.51,1034.7,1389.35,97.66,-1184.08,-720.21
19/7/2026,16:33:30,487.55,-844.24,294.68,1018.47,924.03,-744.63,427.25,-341.8
19/7/2026,16:33:30,453.61,-828.86,318.6,997.13,2213.95,-1696.78,769.04,1196.29
19/7/2026,16:33:30,425.29,-823.49,324.95,982.14,1475.79,-1416.01,268.55,317.38
19/7/2026,16:33:30,454.35,-839.36,274.41,993.1,3020.71,1452.64,-793.45,-2526.86
19/7/2026,16:33:30,475.59,-850.83,267.82,1010.85,1251.27,1062.01,-573.73,-329.59
19/7/2026,16:33:30,489.01,-841.8,295.65,1017.43,1609.76,671.39,451.66,1391.6
19/7/2026,16:33:30,471.19,-842.04,346.68,1025.3,2702.45,-891.11,-12.21,2551.27
19/7/2026,16:33:30,484.38,-844.48,326.17,1026.72,1225.09,659.18,-122.07,-1025.39
19/7/2026,16:33:30,506.59,-836.18,296.87,1021.75,1884.67,1110.84,415.04,-1464.84
19/7/2026,16:33:30,513.43,-835.45,304.93,1026.92,529.57,341.8,36.62,402.83
19/7/2026,16:33:30,517.33,-822.75,361.57,1036.96,2908.86,195.31,634.76,2832.03
19/7/2026,16:33:30,508.79,-817.63,359.62,1027.96,507.73,-427.25,256.34,-97.66
19/7/2026,16:33:30,504.88,-802.98,326.17,1003.03,1836.14,-195.31,732.42,-1672.36
19/7/2026,16:33:30,512.45,-807.37,257.08,990.23,3482.19,378.42,-219.73,-3454.59
19/7/2026,16:33:30,492.68,-823,282.47,999.92,1788.78,-988.77,-781.25,1269.53
19/7/2026,16:33:31,457.76,-825.68,374.76,1015.75,4935.23,-1745.61,-134.28,4614.26
19/7/2026,16:33:31,458.74,-843.99,338.62,1018.55,2025.96,48.83,-915.53,-1806.64
19/7/2026,16:33:31,491.7,-864.5,247.31,1024.84,4960.88,1647.95,-1025.39,-4565.43
19/7/2026,16:33:31,511.72,-863.77,254.39,1035.7,1062.36,1000.98,36.62,354
19/7/2026,16:33:31,496.09,-833.25,339.11,1027.33,4569.57,-781.25,1525.88,4235.84
19/7/2026,16:33:31,496.83,-816.16,355.71,1019.55,1191.86,36.62,854.49,830.08
19/7/2026,16:33:31,522.71,-801.03,301.27,1002.81,3107.62,1293.95,756.84,-2722.17
19/7/2026,16:33:31,535.4,-807.13,276.61,1007.29,1419.9,634.77,-305.18,-1232.91
19/7/2026,16:33:31,539.31,-818.85,291.99,1023.05,986.36,195.31,-585.94,769.04
19/7/2026,16:33:31,514.65,-817.63,331.05,1021.26,2310.52,-1232.91,61.03,1953.13
19/7/2026,16:33:31,487.06,-815.67,333.25,1006.78,1387.2,-1379.39,97.66,109.86
19/7/2026,16:33:31,478.76,-818.36,323,1001.62,673.16,-415.04,-134.28,-512.7
19/7/2026,16:33:31,495.61,-834.72,283.2,1011.23,2310.29,842.28,-817.87,-1989.75
19/7/2026,16:33:31,490.72,-831.3,287.6,1007.26,370.26,-244.14,170.9,219.73
19/7/2026,16:33:31,486.57,-814.21,308.59,997.46,1369.42,-207.52,854.49,1049.8
19/7/2026,16:33:31,501.22,-803.96,310.3,996.92,898.11,732.42,512.7,85.45
19/7/2026,16:33:31,529.05,-823.97,293.95,1022.37,1899.32,1391.6,-1000.98,-817.87
19/7/2026,16:33:31,547.12,-814.21,319.82,1031.78,1651.88,903.32,488.28,1293.95
19/7/2026,16:33:31,536.87,-789.06,344.48,1014.65,1834.06,-512.7,1257.32,1232.91
19/7/2026,16:33:31,530.52,-779.79,348.14,1005.34,591.13,-317.38,463.87,183.11
19/7/2026,16:33:31,547.61,-804.93,263.18,1008.49,4511.86,854.49,-1257.32,-4248.05
19/7/2026,16:33:31,527.1,-805.91,279.05,1002.59,1297.45,-1025.39,-48.83,793.46
19/7/2026,16:33:31,518.8,-809.57,252.2,994.06,1417.33,-415.04,-183.11,-1342.77
19/7/2026,16:33:31,498.05,-800.05,330.08,998.54,4057.93,-1037.6,476.07,3894.04
19/7/2026,16:33:31,510.5,-816.89,296.39,1007.85,1983.63,622.56,-842.29,-1684.57
19/7/2026,16:33:31,521.97,-805.66,279.3,999.78,1172.45,573.73,561.52,-854.49
19/7/2026,16:33:31,525.88,-781.25,267.09,978.9,1378.69,195.31,1220.7,-610.35
19/7/2026,16:33:31,531.01,-768.31,286.13,976.8,1179.35,256.35,646.97,952.15
19/7/2026,16:33:31,549.56,-777.34,246.09,983.28,2252.22,927.73,-451.66,-2001.95
19/7/2026,16:33:31,558.35,-777.83,260.99,992.42,864.98,439.45,-24.41,744.63
19/7/2026,16:33:31,560.06,-778.32,303.47,1005.75,2125.88,85.45,-24.41,2124.02
19/7/2026,16:33:31,583.98,-796.14,270.26,1023.68,2231.88,1196.29,-891.11,-1660.16
19/7/2026,16:33:31,610.35,-784.67,263.92,1028.54,1472.4,1318.36,573.73,-317.38
19/7/2026,16:33:31,630.37,-768.8,254.88,1026.35,1354.82,1000.98,793.46,-451.66
19/7/2026,16:33:31,644.04,-754.64,275.88,1029.75,1438.98,683.59,708.01,1049.8
19/7/2026,16:33:31,662.6,-742.43,282.96,1034.56,1165.56,927.73,610.35,354
19/7/2026,16:33:31,699.71,-744.87,289.06,1062.07,1884.36,1855.47,-122.07,305.18
19/7/2026,16:33:31,741.21,-772.95,294.43,1110.65,2519.77,2075.2,-1403.81,268.55
19/7/2026,16:33:31,742.68,-757.08,335.21,1112.25,2188.77,73.24,793.46,2038.57
19/7/2026,16:33:31,714.11,-737.06,297.61,1068.54,2564.32,-1428.22,1000.98,-1879.88
19/7/2026,16:33:31,665.77,-706.79,276.12,1009.48,3047.46,-2416.99,1513.67,-1074.22
19/7/2026,16:33:31,624.02,-696.78,269.04,973.29,2175.56,-2087.4,500.49,-354
19/7/2026,16:33:31,597.17,-740.97,269.78,989.15,2585.76,-1342.77,-2209.47,36.62
19/7/2026,16:33:31,577.39,-783.69,294.92,1017.12,2668.71,-988.77,-2136.23,1257.32
19/7/2026,16:33:31,588.38,-810.79,283.2,1041.05,1575.13,549.32,-1354.98,-585.94
19/7/2026,16:33:31,596.68,-819.09,270.26,1048.8,873.55,415.04,-415.04,-646.97
19/7/2026,16:33:31,602.29,-788.33,252.69,1023.75,1793.61,280.76,1538.09,-878.91
19/7/2026,16:33:31,596.68,-735.6,264.16,983.31,2712.98,-280.76,2636.72,573.73
19/7/2026,16:33:31,589.6,-701.42,311.52,967.81,2941.79,-354,1708.98,2368.16
19/7/2026,16:33:31,622.56,-715.82,263.92,984.7,2983.39,1647.95,-720.21,-2380.37
19/7/2026,16:33:32,666.26,-761.47,206.79,1032.72,4259.64,2185.06,-2282.71,-2856.45
19/7/2026,16:33:32,677,-780.03,207.76,1053.54,1073.11,537.11,-927.73,48.83
19/7/2026,16:33:32,635.25,-775.88,296.63,1045.72,4913.63,-2087.4,207.52,4443.36
19/7/2026,16:33:32,590.58,-753.91,325.68,1011.55,2882.26,-2233.89,1098.63,1452.64
19/7/2026,16:33:32,582.76,-743.9,289.55,988.35,1914.95,-390.62,500.49,-1806.64
19/7/2026,16:33:32,608.89,-755.86,236.82,999.07,3002.68,1306.15,-598.14,-2636.72
19/7/2026,16:33:32,636.23,-769.04,244.87,1027.71,1570.35,1367.19,-659.18,402.83
19/7/2026,16:33:32,639.89,-773.68,303.71,1048.95,2956.7,183.11,-231.93,2941.89
19/7/2026,16:33:32,641.6,-770.51,307.62,1048.79,265.77,85.45,158.69,195.31
19/7/2026,16:33:32,646.73,-761.23,250.73,1029.85,2893.2,256.35,463.87,-2844.24
19/7/2026,16:33:32,641.36,-745.85,236.57,1011.73,1079.27,-268.55,769.04,-708.01
19/7/2026,16:33:32,635.25,-742.19,245.36,1007.27,565.49,-305.18,183.11,439.45
19/7/2026,16:33:32,643.31,-742.92,236.33,1010.76,606.31,402.83,-36.62,-451.66
19/7/2026,16:33:32,643.07,-768.07,225.83,1026.87,1362.55,-12.21,-1257.32,-524.9
19/7/2026,16:33:32,625.98,-758.54,276.86,1021.71,2732.36,-854.49,476.07,2551.27
19/7/2026,16:33:32,629.64,-777.83,230.22,1026.87,2529.74,183.11,-964.36,-2331.54
19/7/2026,16:33:32,621.58,-751.22,222.17,1000.03,1447.4,-402.83,1330.57,-402.83
19/7/2026,16:33:32,615.72,-748.78,221.92,994.5,317.62,-292.97,122.07,-12.21
19/7/2026,16:33:32,600.83,-744.63,267.82,993.58,2421.61,-744.63,207.52,2294.92
19/7/2026,16:33:32,621.58,-777.59,270.02,1031.46,1950.49,1037.6,-1647.95,109.86
19/7/2026,16:33:32,669.68,-813.48,242.92,1081.31,3292.26,2404.79,-1794.43,-1354.98
19/7/2026,16:33:32,693.12,-813.23,242.19,1095.63,1172.51,1171.88,12.21,-36.62
19/7/2026,16:33:32,689.21,-775.39,271.97,1072.48,2415.79,-195.31,1892.09,1489.26
19/7/2026,16:33:32,674.07,-736.57,259.52,1031.63,2174.29,-756.84,1940.92,-622.56
19/7/2026,16:33:32,668.21,-722.17,221.19,1008.44,2068.22,-292.97,720.21,-1916.5
19/7/2026,16:33:32,662.35,-729.25,205.81,1006.42,895.87,-292.97,-354,-769.04
19/7/2026,16:33:32,637.7,-743.41,232.91,1006.76,1964,-1232.91,-708.01,1354.98
19/7/2026,16:33:32,617.19,-768.31,231.69,1012.37,1614.15,-1025.39,-1245.12,-61.03
19/7/2026,16:33:32,605.47,-756.84,208.25,991.34,1430.31,-585.94,573.73,-1171.88
19/7/2026,16:33:32,604,-748.05,146,972.48,3144.51,-73.24,439.45,-3112.79
19/7/2026,16:33:32,584.47,-719.73,163.33,941.43,1926.12,-976.56,1416.02,866.7
19/7/2026,16:33:32,557.13,-710.21,147.71,914.66,1645.05,-1367.19,476.07,-781.25
19/7/2026,16:33:32,515.38,-698.73,180.66,886.84,2720.69,-2087.4,573.73,1647.95
19/7/2026,16:33:32,501.46,-697.02,174.8,876.28,759.78,-695.8,85.45,-292.97
19/7/2026,16:33:32,526.61,-744.87,148.19,924.18,3012.59,1257.32,-2392.58,-1330.57
19/7/2026,16:33:32,538.09,-758.3,221.92,955.93,3790.83,573.73,-671.39,3686.52
19/7/2026,16:33:32,537.84,-785.89,244.14,983.11,1771.11,-12.21,-1379.39,1110.84
19/7/2026,16:33:32,471.44,-713.87,357.67,927.24,7497.48,-3320.31,3601.07,5676.27
19/7/2026,16:33:32,458.5,-672.61,291.75,864.72,3941.76,-646.97,2062.99,-3295.9
19/7/2026,16:33:32,531.49,-678.47,214.11,888.06,5336.32,3649.9,-292.97,-3881.84
19/7/2026,16:33:32,696.04,-766.6,79.59,1038.5,11504.43,8227.54,-4406.74,-6726.08
19/7/2026,16:33:32,793.7,-826.42,113.04,1151.39,5965.16,4882.81,-2990.72,1672.36
19/7/2026,16:33:32,830.57,-774.9,214.6,1156.01,5984.91,1843.26,2575.68,5078.13
19/7/2026,16:33:32,835.69,-732.18,237.79,1136.23,2444.18,256.35,2136.23,1159.67
19/7/2026,16:33:32,841.8,-696.29,192.38,1109.26,2910.04,305.17,1794.43,-2270.51
19/7/2026,16:33:32,846.19,-704.35,159.67,1112.49,1698.88,219.73,-402.83,-1635.74
19/7/2026,16:33:32,840.82,-732.67,207.28,1134.35,2782.69,-268.55,-1416.02,2380.37
19/7/2026,16:33:32,802.49,-777.83,304.93,1158.45,5710.93,-1916.5,-2258.3,4882.81
19/7/2026,16:33:32,780.76,-793.46,298.34,1152.46,1378.15,-1086.43,-781.25,-329.59
19/7/2026,16:33:32,745.12,-777.1,230.71,1101.05,3908.81,-1782.23,817.87,-3381.35
19/7/2026,16:33:33,704.1,-732.67,261.72,1049.31,3397.79,-2050.78,2221.68,1550.29
19/7/2026,16:33:33,689.45,-751.71,262.7,1053.29,1202.25,-732.42,-952.15,48.83
19/7/2026,16:33:33,677.25,-753.17,305.42,1057.93,2222.92,-610.35,-73.24,2136.23
19/7/2026,16:33:33,688.72,-770.26,233.4,1059.3,3745.27,573.73,-854.49,-3601.07
19/7/2026,16:33:33,662.11,-733.4,220.7,1012.41,2360.29,-1330.57,1843.26,-634.76
19/7/2026,16:33:33,629.39,-709.47,262.94,984.19,2926.86,-1635.74,1196.29,2111.82
19/7/2026,16:33:33,625.73,-766.85,307.37,1036.37,3632.98,-183.11,-2868.65,2221.68
19/7/2026,16:33:33,677,-842.29,263.18,1112.22,5067.64,2563.48,-3771.97,-2209.47
19/7/2026,16:33:33,688.48,-830.08,252.93,1107.7,982.11,573.73,610.35,-512.7
19/7/2026,16:33:33,670.41,-803.22,242.68,1074.01,1697.61,-903.32,1342.77,-512.7
19/7/2026,16:33:33,627.2,-752.69,269.29,1016.08,3581.03,-2160.64,2526.86,1330.57
19/7/2026,16:33:33,581.05,-700.2,310.3,961.35,4051.74,-2307.13,2624.51,2050.78
19/7/2026,16:33:33,584.72,-708.5,236.33,948.53,3726.45,183.11,-415.04,-3698.73
19/7/2026,16:33:33,620.85,-760.01,165.04,995.14,4754.31,1806.64,-2575.68,-3564.45
19/7/2026,16:33:33,636.96,-782.96,167.72,1023.17,1408.47,805.66,-1147.46,134.28
19/7/2026,16:33:33,635.74,-794.19,116.94,1024,2601.13,-61.04,-561.52,-2539.06
19/7/2026,16:33:33,566.41,-734.86,104.74,933.71,4603.28,-3466.8,2966.31,-610.35
19/7/2026,16:33:33,484.62,-679.69,100.59,840.8,4937.29,-4089.35,2758.79,-207.52
19/7/2026,16:33:33,451.17,-690.19,63.23,826.99,2561.35,-1672.36,-524.9,-1867.68
19/7/2026,16:33:33,425.29,-734.13,81.3,852.31,2705.23,-1293.94,-2197.27,903.32
19/7/2026,16:33:33,405.27,-773.19,114.26,880.41,2744.52,-1000.98,-1953.13,1647.95
19/7/2026,16:33:33,406.25,-802,106.2,905.28,1496.49,48.83,-1440.43,-402.83
19/7/2026,16:33:33,425.05,-796.14,88.87,906.87,1311.67,939.94,292.97,-866.7
19/7/2026,16:33:33,489.75,-827.39,57.86,963.21,3912.69,3234.86,-1562.5,-1550.29
19/7/2026,16:33:33,541.5,-808.59,139.16,983.06,4909.63,2587.89,939.94,4064.94
19/7/2026,16:33:33,581.79,-773.44,204.35,989.16,4215.4,2014.16,1757.81,3259.28
19/7/2026,16:33:33,662.84,-755.62,192.87,1023.48,4189.02,4052.73,891.11,-573.73
19/7/2026,16:33:33,766.11,-759.77,130.62,1086.85,6032.83,5163.57,-207.52,-3112.79
19/7/2026,16:33:33,856.93,-778.32,97.17,1161.71,4927.31,4541.02,-927.73,-1672.36
19/7/2026,16:33:33,920.9,-819.09,128.91,1239.19,4111.3,3198.24,-2038.58,1586.91
19/7/2026,16:33:33,888.92,-828.37,208.25,1232.78,4302.52,-1599.12,-463.86,3967.28
19/7/2026,16:33:33,793.21,-772.95,254.39,1136.38,5991.57,-4785.15,2771,2307.13
19/7/2026,16:33:33,696.78,-728.76,211.18,1030.14,5727.1,-4821.78,2209.47,-2160.65
19/7/2026,16:33:33,629.64,-758.3,140.87,995.65,5080.38,-3356.93,-1477.05,-3515.62
19/7/2026,16:33:33,553.47,-807.86,175.54,994.88,4863.2,-3808.59,-2478.03,1733.4
19/7/2026,16:33:33,483.4,-847.41,257.08,1008.9,5727.8,-3503.42,-1977.54,4077.15
19/7/2026,16:33:33,488.04,-871.83,183.11,1015.77,3901.86,231.93,-1220.7,-3698.73
19/7/2026,16:33:33,511.47,-863.04,156.49,1015.35,1826.7,1171.88,439.45,-1330.57
19/7/2026,16:33:33,555.42,-823.49,133.3,1002.19,3175.45,2197.27,1977.54,-1159.67
19/7/2026,16:33:33,570.8,-767.09,157.71,969.08,3167.48,769.04,2819.82,1220.7
19/7/2026,16:33:33,614.5,-734.62,146.73,968.92,2777.07,2185.06,1623.54,-549.32
19/7/2026,16:33:33,666.99,-735.11,104,998.04,3384.1,2624.51,-24.41,-2136.23
19/7/2026,16:33:33,696.78,-755.13,111.08,1033.47,1828.98,1489.26,-1000.98,354
19/7/2026,16:33:33,691.89,-760.5,139.65,1037.58,1473.62,-244.14,-268.55,1428.22
19/7/2026,16:33:33,663.82,-760.01,153.81,1020.75,1572.43,-1403.81,24.41,708.01
19/7/2026,16:33:33,633.79,-777.59,128.91,1011.41,2139.44,-1501.46,-878.91,-1245.12
19/7/2026,16:33:33,611.08,-762.45,112.3,983.55,1597.07,-1135.25,756.84,-830.08
19/7/2026,16:33:33,612.06,-770.02,124.02,991.43,699.22,48.83,-378.42,585.94
19/7/2026,16:33:33,652.1,-804.44,108.64,1041.23,2749.86,2001.95,-1721.19,-769.04
19/7/2026,16:33:33,676.03,-831.54,137.45,1080.45,2311.26,1196.29,-1354.98,1440.43
19/7/2026,16:33:34,666.02,-789.79,139.89,1042.56,2150.03,-500.49,2087.4,122.07
19/7/2026,16:33:34,617.68,-735.84,146.73,971.86,3638.21,-2416.99,2697.75,341.8
19/7/2026,16:33:34,607.91,-708.74,135.5,943.52,1545.87,-488.28,1354.98,-561.52
19/7/2026,16:33:34,648.68,-777.59,57.86,1014.29,5574.44,2038.57,-3442.38,-3881.84
19/7/2026,16:33:34,664.06,-817.14,103.27,1058,3107.62,769.04,-1977.54,2270.51
19/7/2026,16:33:34,640.87,-823.97,106.2,1049.25,1217.83,-1159.67,-341.79,146.48
19/7/2026,16:33:34,604.98,-802.73,104,1010.54,2088.04,-1794.43,1062.01,-109.86
19/7/2026,16:33:34,565.19,-778.81,56.88,963.96,3307.68,-1989.75,1196.29,-2355.96
19/7/2026,16:33:34,528.08,-766.85,111.57,937.74,3358.18,-1855.47,598.14,2734.38
19/7/2026,16:33:34,556.64,-823.49,78.86,997.09,3568.74,1428.22,-2832.03,-1635.74
19/7/2026,16:33:34,560.3,-828.86,153.56,1012.19,3749.47,183.11,-268.55,3735.35
19/7/2026,16:33:34,532.71,-786.13,251.22,982.29,5505.28,-1379.39,2136.23,4882.81
19/7/2026,16:33:34,505.37,-757.57,317.38,964.39,3853.9,-1367.19,1428.22,3308.11
19/7/2026,16:33:34,501.46,-696.04,281.74,902.95,3560.52,-195.31,3076.17,-1782.23
19/7/2026,16:33:34,549.8,-685.55,153.32,892.06,6880.79,2416.99,524.9,-6420.9
19/7/2026,16:33:34,575.44,-682.62,-48.83,894.14,10189.42,1281.74,146.48,-10107.42
19/7/2026,16:33:34,470.7,-591.06,46.63,757.03,8435.64,-5236.82,4577.64,4772.95
19/7/2026,16:33:34,456.3,-602.29,-45.9,757.02,4715.74,-720.21,-561.52,-4626.46
19/7/2026,16:33:34,332.03,-610.84,176.51,717.31,12745.84,-6213.38,-427.25,11120.61
19/7/2026,16:33:34,236.57,-488.53,264.4,603.77,8916,-4772.95,6115.72,4394.53
19/7/2026,16:33:34,280.52,-441.41,112.79,535.03,8236.72,2197.27,2355.96,-7580.57
19/7/2026,16:33:34,379.88,-357.18,-45.65,523.42,10255.9,4968.26,4211.43,-7922.36
19/7/2026,16:33:34,500.49,-296.14,-176.27,607.67,9398.31,6030.27,3051.76,-6530.76
19/7/2026,16:33:34,593.51,-153.81,-289.06,677.84,10202.14,4650.88,7116.7,-5639.65
19/7/2026,16:33:34,543.95,22.22,-144.04,563.13,11669.6,-2478.03,8801.27,7250.98
19/7/2026,16:33:34,464.6,114.99,-197.27,517.68,6658.7,-3967.29,4638.67,-2661.13
19/7/2026,16:33:34,410.64,283.94,-165.77,526.05,9006.32,-2697.75,8447.27,1574.71
19/7/2026,16:33:34,429.44,368.41,-3.42,565.82,9198.87,939.94,4223.63,8117.68
19/7/2026,16:33:34,681.15,-27.59,-62.74,684.59,23647.93,12585.45,-19799.8,-2966.31
19/7/2026,16:33:34,925.05,214.36,-287.84,992.23,20536.01,12194.82,12097.17,-11254.88
19/7/2026,16:33:34,785.64,209.47,-300.29,866.77,7002.22,-6970.21,-244.14,-622.56
19/7/2026,16:33:34,550.78,373.29,-312.74,735.2,14331.11,-11743.16,8190.92,-622.56
19/7/2026,16:33:34,338.87,381.35,-266.85,575.73,10848.86,-10595.7,402.83,2294.92
19/7/2026,16:33:34,224.85,371.58,-292.72,523.76,5866.05,-5700.68,-488.28,-1293.95
19/7/2026,16:33:34,170.41,583.98,-362.3,708.06,11502.2,-2722.17,10620.12,-3479
19/7/2026,16:33:34,-13.92,954.83,-224.61,980.99,21821.18,-9216.31,18542.48,6884.77
19/7/2026,16:33:34,133.3,1471.44,-767.33,1664.84,38180.49,7360.84,25830.08,-27136.23
19/7/2026,16:33:34,147.22,1999.94,-1647.22,2595.14,51325.02,695.8,26425.17,-43994.14
19/7/2026,16:33:34,-2000,1999.94,-1572.02,3235.89,107426.66,-107360.84,0,3759.77
19/7/2026,16:33:34,-2000,1999.94,1999.94,3464.03,178598.03,0,0,178598.03
19/7/2026,16:33:34,1922.36,-1357.18,-414.55,2389.41,284977.75,196118.17,-167855.84,-120724.49
19/7/2026,16:33:34,-958.01,355.96,351.56,1080.78,171888.77,-144018.56,85656.74,38305.66
19/7/2026,16:33:34,-1273.93,989.01,-197.27,1624.79,44771,-15795.9,31652.83,-27441.41
19/7/2026,16:33:34,-240.23,103.52,106.69,282.51,69731.87,51684.57,-44274.9,15197.75
19/7/2026,16:33:34,-865.48,569.82,195.07,1054.42,39248.72,-31262.21,23315.43,4418.94
19/7/2026,16:33:34,-850.1,625.73,299.56,1097.24,5975.14,769.04,2795.41,5224.61
19/7/2026,16:33:34,-811.04,619.14,309.57,1066.28,2042.99,1953.13,-329.59,500.49
19/7/2026,16:33:34,-760.25,498.29,294.19,955.42,6599.23,2539.06,-6042.48,-769.04
19/7/2026,16:33:34,-778.81,516.11,274.66,973.83,1615.07,-927.73,891.11,-976.56
19/7/2026,16:33:34,-794.43,546.63,270.75,1001.62,1725.34,-781.25,1525.88,-195.31
19/7/2026,16:33:35,-772.95,526.86,269.29,973.42,1461.84,1074.22,-988.77,-73.24
19/7/2026,16:33:35,-784.91,531.25,280.52,988.43,849.33,-598.14,219.73,561.52
19/7/2026,16:33:35,-790.77,519.53,286.87,988.7,727.93,-292.97,-585.94,317.38
19/7/2026,16:33:35,-791.02,526.37,280.76,990.75,458.37,-12.21,341.8,-305.18
19/7/2026,16:33:35,-789.55,519.04,286.87,987.47,482.29,73.24,-366.21,305.18
19/7/2026,16:33:35,-782.96,520.75,281.01,981.41,449.18,329.59,85.45,-292.97
19/7/2026,16:33:35,-790.04,524.41,285.16,990.19,449.34,-354,183.11,207.52
19/7/2026,16:33:35,-787.6,526.12,286.13,989.44,156.8,122.07,85.45,48.83
19/7/2026,16:33:35,-786.62,526.37,285.16,988.51,70.12,48.83,12.21,-48.83
19/7/2026,16:33:35,-780.27,522.95,292.24,983.72,505.23,317.38,-170.9,354
19/7/2026,16:33:35,-786.13,525.63,279.3,986.05,722.8,-292.97,134.28,-646.97
19/7/2026,16:33:35,-793.7,522.46,279.54,990.49,410.53,-378.42,-158.69,12.21
19/7/2026,16:33:35,-788.57,521.48,288.33,988.4,511.09,256.35,-48.83,439.45
19/7/2026,16:33:35,-782.71,529.54,284.18,986.82,539.6,292.97,402.83,-207.52
19/7/2026,16:33:35,-787.6,529.54,281.49,989.93,278.63,-244.14,0,-134.28
19/7/2026,16:33:35,-787.84,529.79,280.27,989.91,63.43,-12.21,12.21,-61.04
19/7/2026,16:33:35,-789.79,524.41,271.73,986.22,514,-97.66,-268.55,-427.25
19/7/2026,16:33:35,-787.6,523.93,278.56,986.11,359.85,109.86,-24.41,341.8
19/7/2026,16:33:35,-786.13,521,278.81,983.45,164.23,73.24,-146.48,12.21
19/7/2026,16:33:35,-784.42,520.75,283.45,983.28,247.47,85.45,-12.21,231.93
19/7/2026,16:33:35,-788.82,522.71,275.88,985.68,448.35,-219.73,97.66,-378.42
19/7/2026,16:33:35,-791.75,519.53,283.94,988.63,457.07,-146.48,-158.69,402.83
19/7/2026,16:33:35,-785.4,523.19,271.48,981.98,722.38,317.38,183.11,-622.56
19/7/2026,16:33:35,-788.09,521.73,278.81,985.4,396.87,-134.28,-73.24,366.21
19/7/2026,16:33:35,-785.64,522.46,280.52,984.32,153.44,122.07,36.62,85.45
19/7/2026,16:33:35,-789.31,533.2,281.74,993.32,570.74,-183.11,537.11,61.04
19/7/2026,16:33:35,-787.6,528.56,281.01,989.27,249.87,85.45,-231.93,-36.62
19/7/2026,16:33:35,-788.57,518.8,276.37,983.55,542.77,-48.83,-488.28,-231.93
19/7/2026,16:33:35,-791.02,521.97,284.18,989.4,438.94,-122.07,158.69,390.62
19/7/2026,16:33:35,-790.04,524.17,281.98,989.16,162.86,48.83,109.86,-109.86
19/7/2026,16:33:35,-787.35,521.48,284.91,986.43,239.83,134.28,-134.28,146.48
19/7/2026,16:33:35,-786.38,520.26,281.74,984.09,176.9,48.83,-61.04,-158.69
19/7/2026,16:33:35,-788.82,517.82,282.96,985.11,183.11,-122.07,-122.07,61.04
19/7/2026,16:33:35,-786.62,521.73,272.71,982.52,559.53,109.86,195.31,-512.7
19/7/2026,16:33:35,-792.24,519.78,279.3,987.83,443.84,-280.76,-97.66,329.59
19/7/2026,16:33:35,-786.13,528.08,287.11,989.6,646.51,305.18,415.04,390.62
19/7/2026,16:33:35,-794.68,522.46,279.05,991.14,650.88,-427.25,-280.76,-402.83
19/7/2026,16:33:35,-791.02,514.89,276.37,983.46,441.31,183.11,-378.42,-134.28
19/7/2026,16:33:35,-791.99,516.6,282.96,987.01,343.97,-48.83,85.45,329.59
19/7/2026,16:33:35,-793.21,519.29,282.47,989.26,149.5,-61.04,134.28,-24.41
19/7/2026,16:33:35,-789.31,517.09,282.96,985.12,225.42,195.31,-109.86,24.41
19/7/2026,16:33:35,-786.62,522.22,278.08,984.28,378.61,134.28,256.35,-244.14
19/7/2026,16:33:35,-791.5,524.66,281.25,990.38,315.74,-244.14,122.07,158.69
19/7/2026,16:33:35,-786.38,525.39,280.52,986.47,261.53,256.35,36.62,-36.62
19/7/2026,16:33:35,-784.42,524.66,282.71,985.15,151.49,97.66,-36.62,109.86
19/7/2026,16:33:35,-785.89,521.73,282.23,984.62,165.58,-73.24,-146.48,-24.41
19/7/2026,16:33:35,-790.04,522.95,276.37,986.92,364.17,-207.52,61.04,-292.97
19/7/2026,16:33:35,-791.5,521.73,273.68,986.7,164.68,-73.24,-61.04,-134.28
19/7/2026,16:33:35,-786.87,522.22,282.96,985.87,519.19,231.93,24.41,463.87
19/7/2026,16:33:35,-787.35,526.37,285.16,989.09,236.07,-24.41,207.52,109.86
19/7/2026,16:33:36,-786.87,527.1,281.01,987.9,212.14,24.41,36.62,-207.52
19/7/2026,16:33:36,-790.28,525.63,279.79,989.5,195.69,-170.9,-73.24,-61.04
19/7/2026,16:33:36,-790.53,523.68,283.94,989.85,229.67,-12.21,-97.66,207.52
19/7/2026,16:33:36,-791.26,520.02,276.37,986.35,421.98,-36.62,-183.11,-378.42
19/7/2026,16:33:36,-787.35,523.19,274.9,984.49,262.1,195.31,158.69,-73.24
19/7/2026,16:33:36,-789.31,528.08,286.13,991.84,620.04,-97.66,244.14,561.52
19/7/2026,16:33:36,-792.48,523.19,282.71,990.8,337.63,-158.69,-244.14,-170.9
19/7/2026,16:33:36,-786.62,526.12,287.84,989.16,415.94,292.97,146.48,256.35
19/7/2026,16:33:36,-784.42,525.39,286.62,986.66,130.91,109.86,-36.62,-61.04
19/7/2026,16:33:36,-786.87,530.27,283.45,990.3,315.74,-122.07,244.14,-158.69
19/7/2026,16:33:36,-786.62,519.78,282.96,984.38,525.61,12.21,-524.9,-24.41
19/7/2026,16:33:36,-791.02,522.46,282.47,989.17,258.66,-219.73,134.28,-24.41
19/7/2026,16:33:36,-792.97,522.46,284.42,991.29,138.11,-97.66,0,97.66
19/7/2026,16:33:36,-790.77,525.88,284.91,991.49,204.63,109.86,170.9,24.41
19/7/2026,16:33:36,-782.71,523.19,283.2,983.15,433.13,402.83,-134.28,-85.45
19/7/2026,16:33:36,-785.16,525.63,285.4,987.02,204.63,-122.07,122.07,109.86
19/7/2026,16:33:36,-784.67,527.1,280.03,985.88,279.43,24.41,73.24,-268.55
19/7/2026,16:33:36,-784.67,528.56,283.2,987.57,174.78,0,73.24,158.69
19/7/2026,16:33:36,-782.96,525.88,285.89,985.55,208.24,85.45,-134.28,134.28
19/7/2026,16:33:36,-789.06,521.73,278.56,986.11,519.91,-305.18,-207.52,-366.21
19/7/2026,16:33:36,-789.55,521.97,283.94,988.16,269.94,-24.41,12.21,268.55
19/7/2026,16:33:36,-787.6,521.48,284.18,986.41,101.4,97.66,-24.41,12.21
19/7/2026,16:33:36,-790.04,522.71,283.2,988.73,144.95,-122.07,61.04,-48.83
19/7/2026,16:33:36,-787.35,530.52,273.68,988.07,630.29,134.28,390.62,-476.07
19/7/2026,16:33:36,-784.91,527.1,279.3,985.86,350.62,122.07,-170.9,280.76
19/7/2026,16:33:36,-781.49,527.34,278.56,983.07,175.2,170.9,12.21,-36.62
19/7/2026,16:33:36,-787.11,518.8,283.45,984.4,566.54,-280.76,-427.25,244.14
19/7/2026,16:33:36,-786.87,520.26,272.71,981.94,542.22,12.21,73.24,-537.11
19/7/2026,16:33:36,-788.09,521.24,276.37,984.45,199.09,-61.04,48.83,183.11
19/7/2026,16:33:36,-792.48,526.37,283.94,992.83,507.14,-219.73,256.35,378.42
19/7/2026,16:33:36,-782.71,517.58,276.37,978.22,758.11,488.28,-439.45,-378.42
19/7/2026,16:33:36,-785.89,527.59,278.56,986.7,536.42,-158.69,500.49,109.86
19/7/2026,16:33:36,-783.2,530.03,278.08,985.73,183.11,134.28,122.07,-24.41
19/7/2026,16:33:36,-782.96,526.12,285.16,985.47,404.49,12.21,-195.31,354
19/7/2026,16:33:36,-784.91,530.27,288.09,990.09,272.14,-97.66,207.52,146.48
19/7/2026,16:33:36,-785.16,526.37,294.43,990.06,372.86,-12.21,-195.31,317.38
19/7/2026,16:33:36,-784.67,524.9,280.76,984.91,687.94,24.41,-73.24,-683.59
19/7/2026,16:33:36,-785.89,519.78,283.2,983.87,290.41,-61.04,-256.35,122.07
19/7/2026,16:33:36,-787.11,521,279.79,984.51,191.46,-61.04,61.04,-170.9
19/7/2026,16:33:36,-788.09,530.76,280.52,990.7,492.08,-48.83,488.28,36.62
19/7/2026,16:33:36,-795.41,520.26,281.74,991.33,642.93,-366.21,-524.9,61.04
19/7/2026,16:33:36,-787.11,525.88,276.61,986.21,562.85,415.04,280.76,-256.35
19/7/2026,16:33:36,-786.38,523.19,279.79,985.09,211.08,36.62,-134.28,158.69
19/7/2026,16:33:36,-791.02,524.66,284.91,991.03,353.37,-231.93,73.24,256.35
19/7/2026,16:33:36,-785.89,525.15,277.59,985.12,447.68,256.35,24.41,-366.21
19/7/2026,16:33:36,-786.13,522.71,286.87,986.67,479.82,-12.21,-122.07,463.87
19/7/2026,16:33:36,-784.42,521.73,279.05,982.54,402.83,85.45,-48.83,-390.62
19/7/2026,16:33:36,-789.79,520.75,278.81,986.25,273.23,-268.55,-48.83,-12.21
19/7/2026,16:33:36,-791.5,522.95,284.91,990.52,335.42,-85.45,109.86,305.18
19/7/2026,16:33:36,-786.62,528.08,282.23,988.58,378.61,244.14,256.35,-134.28
19/7/2026,16:33:37,-785.89,531.49,290.53,992.23,450.34,36.62,170.9,415.04
19/7/2026,16:33:37,-783.94,534.91,285.16,990.96,332.96,97.66,170.9,-268.55
19/7/2026,16:33:37,-785.4,528.08,286.38,988.8,354.84,-73.24,-341.8,61.04
19/7/2026,16:33:37,-786.87,525.63,281.98,987.4,261.81,-73.24,-122.07,-219.73
19/7/2026,16:33:37,-788.57,523.93,278.56,986.89,209.31,-85.45,-85.45,-170.9
19/7/2026,16:33:37,-789.79,525.88,280.52,989.45,150.99,-61.04,97.66,97.66
19/7/2026,16:33:37,-783.94,527.83,286.13,987.44,417.37,292.97,97.66,280.76
19/7/2026,16:33:37,-779.54,531.01,284.91,985.31,277.83,219.73,158.69,-61.04
19/7/2026,16:33:37,-782.47,524.66,286.87,984.79,362.94,-146.48,-317.38,97.66
19/7/2026,16:33:37,-784.67,527.1,280.52,986.02,357.36,-109.86,122.07,-317.38
19/7/2026,16:33:37,-786.87,527.83,279.05,987.74,137.02,-109.86,36.62,-73.24
19/7/2026,16:33:37,-785.64,526.61,287.11,988.43,411.98,61.04,-61.04,402.83
19/7/2026,16:33:37,-787.35,523.93,278.81,985.98,444.51,-85.45,-134.28,-415.04
19/7/2026,16:33:37,-787.35,531.74,285.4,992.03,511.09,0,390.62,329.59
19/7/2026,16:33:37,-789.31,526.37,282.96,990.02,310.74,-97.66,-268.55,-122.07
19/7/2026,16:33:37,-784.42,521.73,276.61,981.85,462.74,244.14,-231.93,-317.38
19/7/2026,16:33:37,-788.09,518.31,285.64,985.55,516.46,-183.11,-170.9,451.66
19/7/2026,16:33:37,-791.26,529.05,285.4,993.7,560.2,-158.69,537.11,-12.21
19/7/2026,16:33:37,-786.62,527.34,286.62,989.45,254.6,231.93,-85.45,61.04
19/7/2026,16:33:37,-785.89,524.9,279.79,985.61,364.78,36.62,-122.07,-341.8
19/7/2026,16:33:37,-783.94,525.88,279.54,984.5,109.86,97.66,48.83,-12.21
19/7/2026,16:33:37,-783.45,528.81,285.64,987.43,339.39,24.41,146.48,305.18
19/7/2026,16:33:37,-788.82,527.1,275.88,988.02,563.77,-268.55,-85.45,-488.28
19/7/2026,16:33:37,-784.18,528.08,286.13,987.76,564.83,231.93,48.83,512.7
19/7/2026,16:33:37,-786.38,525.15,286.62,988.09,184.73,-109.86,-146.48,24.41
19/7/2026,16:33:37,-791.02,523.93,286.38,991.07,240.14,-231.93,-61.04,-12.21
19/7/2026,16:33:37,-787.6,522.46,282.23,986.37,278.63,170.9,-73.24,-207.52
19/7/2026,16:33:37,-786.62,526.12,285.4,988.45,247.17,48.83,183.11,158.69
19/7/2026,16:33:37,-788.09,521.73,284.42,987,236.7,-73.24,-219.73,-48.83
19/7/2026,16:33:37,-789.31,521.73,279.05,986.45,275.4,-61.04,0,-268.55
19/7/2026,16:33:37,-784.67,524.17,278.81,983.97,262.38,231.93,122.07,-12.21
19/7/2026,16:33:37,-780.52,525.88,279.79,981.85,229.67,207.52,85.45,48.83
19/7/2026,16:33:37,-785.89,528.32,283.2,988.41,340.92,-268.55,122.07,170.9
19/7/2026,16:33:37,-782.96,525.88,282.71,984.63,192.24,146.48,-122.07,-24.41
19/7/2026,16:33:37,-788.09,529.05,277.34,988.89,403.76,-256.35,158.69,-268.55
19/7/2026,16:33:37,-786.13,523.44,280.76,985.3,342.89,97.66,-280.76,170.9
19/7/2026,16:33:37,-785.64,524.9,280.76,985.69,77.2,24.41,73.24,0
19/7/2026,16:33:37,-785.64,527.1,280.52,986.79,110.54,0,109.86,-12.21
19/7/2026,16:33:37,-786.13,527.59,282.47,988,103.58,-24.41,24.41,97.66
19/7/2026,16:33:37,-788.09,526.86,285.16,989.93,170.02,-97.66,-36.62,134.28
19/7/2026,16:33:37,-784.91,527.34,284.18,987.39,167.82,158.69,24.41,-48.83
19/7/2026,16:33:37,-787.6,527.1,280.03,988.21,247.47,-134.28,-12.21,-207.52
19/7/2026,16:33:37,-787.6,525.15,278.32,986.69,129.76,0,-97.66,-85.45
19/7/2026,16:33:37,-785.89,523.44,278.08,984.34,121.46,85.45,-85.45,-12.21
19/7/2026,16:33:37,-786.13,524.66,285.16,987.21,359.43,-12.21,61.04,354
19/7/2026,16:33:37,-786.62,524.41,282.96,986.84,113.2,-24.41,-12.21,-109.86
19/7/2026,16:33:37,-790.28,524.17,280.76,989,213.88,-183.11,-12.21,-109.86
19/7/2026,16:33:37,-788.57,525.15,282.96,988.78,147.5,85.45,48.83,109.86
19/7/2026,16:33:37,-783.2,525.15,278.56,983.25,346.99,268.55,0,-219.73
19/7/2026,16:33:37,-786.87,525.15,281.49,987,234.49,-183.11,0,146.48
19/7/2026,16:33:38,-785.89,522.95,277.34,983.88,239.83,48.83,-109.86,-207.52
19/7/2026,16:33:38,-786.38,525.15,278.32,985.71,122.68,-24.41,109.86,48.83
19/7/2026,16:33:38,-783.2,528.32,286.62,987.26,471.83,158.69,158.69,415.04
19/7/2026,16:35:34,364.26,-772.71,-588.13,1037.14,2363.06,1696.78,-329.59,1611.33
19/7/2026,16:35:34,392.58,-764.89,-585.94,1040.43,1473.01,1416.02,390.62,109.86
19/7/2026,16:35:34,399.41,-741.21,-537.84,999.1,2702.2,341.8,1184.08,2404.79
19/7/2026,16:35:34,415.28,-723.39,-595.46,1024.85,3118.17,793.46,891.11,-2880.86
19/7/2026,16:35:34,391.85,-707.28,-583.74,997.26,1538.09,-1171.88,805.66,585.94
19/7/2026,16:35:34,378.91,-712.16,-588.38,998.46,729.36,-646.97,-244.14,-231.93
19/7/2026,16:35:34,354,-723.63,-569.34,986.46,1669.15,-1245.12,-573.73,952.15
19/7/2026,16:35:34,345.7,-749.51,-591.55,1015.49,1755.14,-415.04,-1293.95,-1110.84
19/7/2026,16:35:34,332.03,-755.13,-587.16,1012.53,770.98,-683.59,-280.76,219.73
19/7/2026,16:35:34,322.51,-755.13,-581.05,1005.91,565.49,-476.07,0,305.18
19/7/2026,16:35:34,321.29,-740.48,-604.25,1008.29,1372.95,-61.04,732.42,-1159.67
19/7/2026,16:35:34,340.09,-722.9,-616.7,1009.24,1429.53,939.94,878.91,-622.56
19/7/2026,16:35:34,350.34,-716.8,-603.03,1000.09,907.35,512.7,305.18,683.59
19/7/2026,16:35:34,360.84,-718.02,-543.7,970.24,3013.01,524.9,-61.04,2966.31
19/7/2026,16:35:34,400.88,-736.57,-578.86,1018.98,2821.07,2001.95,-927.73,-1757.81
19/7/2026,16:35:34,397.46,-753.91,-576.9,1029.16,888.77,-170.9,-866.7,97.66
19/7/2026,16:35:34,404.79,-737.79,-636.23,1054.98,3095.51,366.21,805.66,-2966.31
19/7/2026,16:35:34,356.2,-720.7,-598.39,1002.18,3195.49,-2429.2,854.49,1892.09
19/7/2026,16:35:34,332.76,-700.44,-578.86,967.69,1831.26,-1171.88,1013.18,976.56
19/7/2026,16:35:34,322.02,-716.31,-558.11,963.47,1412.33,-537.11,-793.46,1037.6
19/7/2026,16:35:34,351.81,-739.99,-612.55,1023.02,3321.17,1489.26,-1184.08,-2722.17
19/7/2026,16:35:34,366.7,-761.23,-606.93,1040.34,1327.09,744.63,-1062.01,280.76
19/7/2026,16:35:34,370.61,-752.44,-588.87,1024.83,1023.35,195.31,439.45,903.32
19/7/2026,16:35:34,349.61,-725.1,-551.51,975.79,2541.56,-1049.8,1367.19,1867.68
19/7/2026,16:35:35,350.34,-704.59,-591.8,984.59,2260.44,36.62,1025.39,-2014.16
19/7/2026,16:35:35,357.91,-708.98,-611.33,1002.24,1070.12,378.42,-219.73,-976.56
19/7/2026,16:35:35,361.82,-717.53,-620.61,1015.34,660.2,195.31,-427.25,-463.87
19/7/2026,16:35:35,347.66,-721.19,-568.12,981.7,2724.49,-708.01,-183.11,2624.51
19/7/2026,16:35:35,349.37,-736.33,-572.75,996.13,796.18,85.45,-756.84,-231.93
19/7/2026,16:35:35,359.13,-751.95,-606.2,1030.48,1909.34,488.28,-781.25,-1672.36
19/7/2026,16:35:35,362.3,-744.63,-616.46,1032.35,649.73,158.69,366.21,-512.7
19/7/2026,16:35:35,346.92,-738.04,-585.21,1003.75,1772.42,-769.04,329.59,1562.5
19/7/2026,16:35:35,343.99,-730.47,-544.43,973.82,2078.57,-146.48,378.42,2038.57
19/7/2026,16:35:35,367.19,-743.41,-592.04,1018.82,2725.72,1159.67,-646.97,-2380.37
19/7/2026,16:35:35,388.18,-752.44,-647.22,1065.71,2986.14,1049.8,-451.66,-2758.79
19/7/2026,16:35:35,377.44,-733.89,-624.76,1035.07,1552.55,-537.11,927.73,1123.05
19/7/2026,16:35:35,349.85,-708.5,-564.21,970.93,3560.79,-1379.39,1269.53,3027.34
19/7/2026,16:35:35,336.18,-700.93,-539.31,946.13,1469.97,-683.59,378.42,1245.12
19/7/2026,16:35:35,376.95,-726.32,-627.93,1031.47,5040.1,2038.57,-1269.53,-4431.15
19/7/2026,16:35:35,395.75,-758.79,-641.6,1069.59,1996.66,939.94,-1623.54,-683.59
19/7/2026,16:35:35,369.38,-754.88,-551.27,1005.08,4709.13,-1318.36,195.31,4516.6
19/7/2026,16:35:35,345.95,-756.1,-523.68,982.66,1811.01,-1171.88,-61.04,1379.39
19/7/2026,16:35:35,352.05,-750.98,-578.37,1011.15,2763.27,305.18,256.35,-2734.38
19/7/2026,16:35:35,360.35,-747.8,-625.73,1039.52,2409.49,415.04,158.69,-2368.16
19/7/2026,16:35:35,351.32,-729.49,-600.1,1007.82,1638.61,-451.66,915.53,1281.74
19/7/2026,16:35:35,351.81,-722.66,-588.38,996.09,678.78,24.41,341.8,585.94
19/7/2026,16:35:35,357.18,-720.7,-551.51,975.27,1865.28,268.55,97.66,1843.26
19/7/2026,16:35:35,375,-728.76,-590.82,1010.34,2195.2,891.11,-402.83,-1965.33
19/7/2026,16:35:35,366.46,-726.07,-598.63,1009.87,594.27,-427.25,134.28,-390.62
19/7/2026,16:35:35,345.7,-724.37,-566.16,982.22,1928.67,-1037.6,85.45,1623.54
19/7/2026,16:35:35,334.96,-729.98,-553.71,975.53,868.85,-537.11,-280.76,622.56
19/7/2026,16:35:35,341.8,-743.9,-577.64,1001.93,1425.51,341.8,-695.8,-1196.29
19/7/2026,16:35:35,367.68,-749.27,-636.47,1049.61,3225.08,1293.95,-268.55,-2941.89
19/7/2026,16:35:35,362.06,-731.45,-635.25,1034.24,936.29,-280.76,891.11,61.04
19/7/2026,16:35:35,339.11,-699.95,-572.27,965.62,3703.4,-1147.46,1574.71,3149.41
19/7/2026,16:35:35,338.62,-698.73,-551.51,952.4,1039.68,-24.41,61.04,1037.6
19/7/2026,16:35:35,380.13,-717.53,-625.98,1025.28,4364.83,2075.2,-939.94,-3723.14
19/7/2026,16:35:35,408.45,-737.79,-638.18,1057.57,1845.04,1416.02,-1013.18,-610.35
19/7/2026,16:35:35,381.35,-725.83,-582.03,1005.49,3174.34,-1354.98,598.14,2807.62
19/7/2026,16:35:35,350.83,-711.43,-551.76,966.25,2266.76,-1525.88,720.21,1513.67
19/7/2026,16:35:35,351.32,-710.94,-644.29,1021.74,4626.59,24.41,24.41,-4626.46
19/7/2026,16:35:35,342.29,-700.44,-650.39,1015.27,756.74,-451.66,524.9,-305.18
19/7/2026,16:35:35,336.43,-707.52,-631.35,1006.16,1057.23,-292.97,-354,952.15
19/7/2026,16:35:35,333.25,-717.53,-584.23,983.48,2413.75,-158.69,-500.49,2355.96
19/7/2026,16:35:35,341.55,-727.78,-510.99,952.59,3721.04,415.04,-512.7,3662.11
19/7/2026,16:35:35,386.47,-763.92,-566.16,1026.39,3989.96,2246.09,-1806.64,-2758.79
19/7/2026,16:35:35,425.54,-760.01,-639.16,1080.38,4144.23,1953.13,195.31,-3649.9
19/7/2026,16:35:35,400.15,-706.3,-625.73,1024.95,3045.43,-1269.53,2685.55,671.39
19/7/2026,16:35:35,339.84,-662.6,-571.78,938.86,4598.2,-3015.14,2185.06,2697.75
19/7/2026,16:35:35,304.93,-642.58,-520.26,881.23,3268.52,-1745.61,1000.98,2575.68
19/7/2026,16:35:35,337.89,-693.85,-617.68,988.49,5745.43,1647.95,-2563.48,-4870.61
19/7/2026,16:35:35,372.8,-751.22,-631.59,1049.87,3429.35,1745.61,-2868.65,-695.8
19/7/2026,16:35:35,368.41,-758.54,-558.11,1011.24,3699.05,-219.73,-366.21,3674.32
19/7/2026,16:35:35,399.9,-754.15,-596.92,1041.63,2509.01,1574.71,219.73,-1940.92
19/7/2026,16:35:36,411.13,-721.44,-601.32,1025.22,1743.34,561.52,1635.74,-219.73
19/7/2026,16:35:36,405.52,-693.85,-587.4,995.44,1570.25,-280.76,1379.39,695.8
19/7/2026,16:35:36,375.24,-662.11,-568.12,949.71,2395.72,-1513.67,1586.91,964.36
19/7/2026,16:35:36,336.91,-636.96,-507.32,881.26,3806.93,-1916.5,1257.32,3039.55
19/7/2026,16:35:36,338.38,-685.55,-525.39,927.64,2592.75,73.24,-2429.2,-903.32
19/7/2026,16:35:36,400.39,-751.22,-636.47,1062.89,7158.59,3100.59,-3283.69,-5554.2
19/7/2026,16:35:36,419.19,-762.7,-708.5,1122.23,3765.69,939.94,-573.73,-3601.07
19/7/2026,16:35:36,373.78,-692.38,-634.28,1010.65,5593.38,-2270.51,3515.63,3710.94
19/7/2026,16:35:36,353.27,-636.23,-575.44,927.75,4193.91,-1025.39,2807.62,2941.89
19/7/2026,16:35:36,425.54,-657.47,-681.64,1038.26,6510.02,3613.28,-1062.01,-5310.06
19/7/2026,16:35:36,495.85,-684.33,-722.66,1111.94,4285.83,3515.62,-1342.77,-2050.78
19/7/2026,16:35:36,518.31,-713.13,-665.28,1104.45,3400.77,1123.05,-1440.43,2868.65
19/7/2026,16:35:36,479.49,-708.74,-524.17,1003.48,7321.05,-1940.92,219.73,7055.66
19/7/2026,16:35:36,466.55,-713.87,-541.26,1010.07,1102.02,-646.98,-256.35,-854.49
19/7/2026,16:35:36,474.61,-747.56,-667.97,1109.18,6567.95,402.83,-1684.57,-6335.45
19/7/2026,16:35:36,440.67,-749.02,-653.56,1087.37,1844.76,-1696.78,-73.24,720.21
19/7/2026,16:35:36,400.15,-714.84,-599.12,1014.92,3799.6,-2026.37,1708.98,2722.17
19/7/2026,16:35:36,408.45,-708.01,-649.66,1044.11,2583.42,415.04,341.8,-2526.86
19/7/2026,16:35:36,429.2,-706.54,-688.23,1075.68,2191.32,1037.6,73.24,-1928.71
19/7/2026,16:35:36,431.4,-687.74,-655.03,1043.15,1910.94,109.86,939.94,1660.16
19/7/2026,16:35:36,452.39,-704.59,-654.54,1062.79,1346.15,1049.8,-842.29,24.41
19/7/2026,16:35:36,447.27,-703.37,-596.19,1024.8,2929.36,-256.35,61.04,2917.48
19/7/2026,16:35:36,414.55,-701.9,-523.93,969.03,3966.97,-1635.74,73.24,3613.28
19/7/2026,16:35:36,409.91,-718.51,-546.14,991.24,1405.98,-231.93,-830.08,-1110.84
19/7/2026,16:35:36,414.06,-742.43,-575.93,1026.81,1921.47,207.52,-1196.29,-1489.26
19/7/2026,16:35:36,413.82,-730.47,-619.14,1043.15,2241.94,-12.21,598.14,-2160.64
19/7/2026,16:35:36,386.23,-705.81,-617.68,1014.33,1851.53,-1379.39,1232.91,73.24
19/7/2026,16:35:36,355.47,-666.75,-550.29,934.74,4187.06,-1538.09,1953.13,3369.14
19/7/2026,16:35:36,352.78,-650.63,-548.34,921.12,822.59,-134.28,805.66,97.66
19/7/2026,16:35:36,395.75,-676.03,-614.99,995.91,4163.31,2148.44,-1269.53,-3332.52
19/7/2026,16:35:36,420.17,-692.87,-645.02,1035.69,2110.44,1220.7,-842.29,-1501.46
19/7/2026,16:35:36,402.59,-689.45,-618.65,1010.03,1593.66,-878.9,170.9,1318.36
19/7/2026,16:35:36,359.37,-660.16,-568.85,942.63,3607.69,-2160.64,1464.84,2490.23
19/7/2026,16:35:36,358.15,-662.35,-587.16,954.85,924.11,-61.04,-109.86,-915.53
19/7/2026,16:35:36,409.42,-698,-711.43,1077.48,6953.69,2563.48,-1782.23,-6213.38
19/7/2026,16:35:36,417.24,-714.6,-707.03,1088.41,943.34,390.62,-830.08,219.73
19/7/2026,16:35:36,397.46,-689.21,-631.84,1015.97,4089.65,-988.77,1269.53,3759.77
19/7/2026,16:35:36,393.8,-673.34,-608.15,989.1,1437.06,-183.11,793.46,1184.08
19/7/2026,16:35:36,386.72,-665.53,-599.12,975.41,694.19,-354,390.62,451.66
19/7/2026,16:35:36,392.82,-678.71,-593.75,983.61,774.45,305.18,-659.18,268.55
19/7/2026,16:35:36,405.76,-699.95,-637.94,1030.31,2535.39,646.97,-1062.01,-2209.47
19/7/2026,16:35:36,391.36,-697.27,-604.74,1002.52,1814.62,-720.21,134.28,1660.16
19/7/2026,16:35:36,397.95,-704.1,-628.42,1024.22,1275.74,329.59,-341.8,-1184.08
19/7/2026,16:35:36,365.97,-674.56,-601.81,975.26,2551.33,-1599.12,1477.05,1330.57
19/7/2026,16:35:36,332.76,-656.01,-578.86,936.03,2221.14,-1660.16,927.73,1147.46
19/7/2026,16:35:36,343.26,-655.76,-636.23,976.03,2916.31,524.9,12.21,-2868.65
19/7/2026,16:35:36,354.98,-672.36,-656.98,1004.84,1452.23,585.94,-830.08,-1037.6
19/7/2026,16:35:36,373.29,-690.67,-650.88,1019.81,1330.23,915.53,-915.53,305.18
19/7/2026,16:35:36,375.98,-683.11,-625.98,999.92,1308.26,134.28,378.42,1245.12
19/7/2026,16:35:36,367.19,-662.84,-629.15,984.89,1115.73,-439.45,1013.18,-158.69
19/7/2026,16:35:37,389.89,-654.54,-690.19,1028.01,3282.42,1135.25,415.04,-3051.76
19/7/2026,16:35:37,402.83,-664.55,-719.73,1059.2,1688.41,646.97,-500.49,-1477.05
19/7/2026,16:35:37,391.6,-652.59,-675.05,1017.31,2379.78,-561.52,598.14,2233.89
19/7/2026,16:35:37,369.63,-670.9,-598.63,972.16,4079.67,-1098.63,-915.53,3820.8
19/7/2026,16:35:37,393.07,-711.18,-601.32,1010.87,2334.13,1171.88,-2014.16,-134.28
19/7/2026,16:35:37,409.67,-750.24,-620.61,1056.34,2331.03,830.08,-1953.13,-964.36
19/7/2026,16:35:37,414.31,-742.92,-640.62,1064.89,1090.81,231.93,366.21,-1000.98
19/7/2026,16:35:37,391.36,-711.43,-652.34,1041.56,2034.62,-1147.46,1574.71,-585.94
19/7/2026,16:35:37,343.75,-667.97,-587.65,953.77,4566.38,-2380.37,2172.85,3234.86
19/7/2026,16:35:37,334.47,-651.86,-599.61,946.74,1105.46,-463.87,805.66,-598.14
19/7/2026,16:35:37,341.31,-668.46,-625.49,977.02,1574.85,341.8,-830.08,-1293.95
19/7/2026,16:35:37,366.46,-685.06,-663.82,1021.89,2437.8,1257.32,-830.08,-1916.5
19/7/2026,16:35:37,391.6,-708.01,-681.4,1057.79,1915.73,1257.32,-1147.46,-878.91
19/7/2026,16:35:37,377.44,-692.14,-634.77,1012.15,2562.6,-708.01,793.46,2331.54
19/7/2026,16:35:37,352.29,-656.74,-618.16,968.27,2324.41,-1257.32,1770.02,830.08
19/7/2026,16:35:37,353.03,-641.85,-668.7,991.84,2634.54,36.62,744.63,-2526.86
19/7/2026,16:35:37,363.77,-651.12,-705.32,1026.53,1963.78,537.11,-463.87,-1831.05
19/7/2026,16:35:37,378.17,-674.8,-686.28,1034.1,1681.47,720.21,-1184.08,952.15
19/7/2026,16:35:37,364.99,-691.89,-620.85,998.69,3444.89,-659.18,-854.49,3271.48
19/7/2026,16:35:37,379.64,-715.33,-581.79,997.15,2392.58,732.42,-1171.88,1953.13
19/7/2026,16:35:37,393.55,-734.86,-625.49,1042.18,2492.45,695.8,-976.56,-2185.06
19/7/2026,16:35:37,379.88,-714.11,-610.6,1013.46,1448.58,-683.59,1037.6,744.63
19/7/2026,16:35:37,363.28,-696.78,-637.21,1011.68,1791.82,-830.08,866.7,-1330.57
19/7/2026,16:35:37,354,-681.4,-677.49,1024.02,2205.32,-463.87,769.04,-2014.16
19/7/2026,16:35:37,331.79,-668.46,-645.02,986.39,2070.85,-1110.84,646.97,1623.54
19/7/2026,16:35:37,325.93,-665.53,-637.7,977.66,491.32,-292.97,146.48,366.21
19/7/2026,16:35:37,337.65,-674.32,-638.43,988.08,733.34,585.94,-439.45,-36.62
19/7/2026,16:35:37,361.33,-697.27,-672.85,1034.15,2383.53,1184.08,-1147.46,-1721.19
19/7/2026,16:35:37,375,-696.29,-688.72,1048.7,1048.46,683.59,48.83,-793.46
19/7/2026,16:35:37,361.08,-671.87,-657.71,1007.17,2092.29,-695.8,1220.7,1550.29
19/7/2026,16:35:37,347.17,-629.15,-637.7,960.73,2459.59,-695.8,2136.23,1000.98
19/7/2026,16:35:37,365.97,-638.43,-715.09,1026.1,4009.08,939.94,-463.87,-3869.63
19/7/2026,16:35:37,372.8,-635.25,-708.25,1021.84,508.76,341.8,158.69,341.8
19/7/2026,16:35:37,384.28,-651.37,-714.6,1040.48,1038.75,573.73,-805.66,-317.38
19/7/2026,16:35:37,358.15,-643.55,-646.97,980.31,3645.84,-1306.15,390.62,3381.35
19/7/2026,16:35:37,346.19,-659.91,-609.62,962.79,2124.83,-598.14,-817.87,1867.68
19/7/2026,16:35:37,356.93,-692.63,-614.75,992.5,1740.65,537.11,-1635.74,-256.35
19/7/2026,16:35:37,368.65,-704.83,-664.55,1036.5,2630.04,585.94,-610.35,-2490.23
19/7/2026,16:35:37,370.12,-699.71,-687.99,1048.76,1201.82,73.24,256.35,-1171.88
19/7/2026,16:35:37,353.52,-678.96,-677,1021.9,1437.84,-830.08,1037.6,549.32
19/7/2026,16:35:37,333.25,-641.85,-666.75,983.65,2175.35,-1013.18,1855.47,512.7
19/7/2026,16:35:37,325.44,-634.03,-658.94,970.62,676.58,-390.62,390.62,390.62
19/7/2026,16:35:37,338.62,-636.47,-682.62,992.84,1360.69,659.18,-122.07,-1184.08
19/7/2026,16:35:37,362.06,-675.78,-687.01,1029.44,2298.72,1171.88,-1965.33,-219.73
19/7/2026,16:35:37,383.54,-695.31,-702.88,1060.48,1654.45,1074.22,-976.56,-793.46
19/7/2026,16:35:37,352.29,-677.98,-652.34,1004.65,3094.77,-1562.5,866.7,2526.86
19/7/2026,16:35:37,351.07,-661.87,-662.84,1000.34,963.51,-61.04,805.66,-524.9
19/7/2026,16:35:37,362.55,-659.67,-712.16,1036.23,2534.07,573.73,109.86,-2465.82
19/7/2026,16:35:37,365.97,-650.88,-705.81,1027.49,568.38,170.9,439.45,317.38
19/7/2026,16:35:37,348.39,-644.04,-661.13,986.54,2424.78,-878.91,341.8,2233.89
19/7/2026,16:35:38,334.47,-643.8,-634.52,963.83,1501.56,-695.8,12.21,1330.57
19/7/2026,16:35:38,341.8,-667.24,-666.26,1002.96,2006.41,366.21,-1171.88,-1586.91
19/7/2026,16:35:38,350.83,-676.76,-693.85,1030.78,1527.54,451.66,-476.07,-1379.39
19/7/2026,16:35:38,342.29,-670.65,-706.54,1032.54,823.77,-427.25,305.18,-634.77
19/7/2026,16:35:38,318.12,-635.5,-668.95,975.98,2843.3,-1208.5,1757.81,1879.88
19/7/2026,16:35:38,334.72,-640.38,-694.34,1002.11,1536.34,830.08,-244.14,-1269.53
19/7/2026,16:35:38,363.77,-644.78,-729.25,1039.17,2281.57,1452.64,-219.73,-1745.61
19/7/2026,16:35:38,362.3,-631.59,-709.72,1016.79,1180.49,-73.24,659.18,976.56
19/7/2026,16:35:38,343.02,-622.07,-662.35,971.26,2600.93,-964.36,476.07,2368.16
19/7/2026,16:35:38,352.54,-617.19,-686.04,987.85,1299.35,476.07,244.14,-1184.08
19/7/2026,16:35:38,344.48,-635.5,-687.74,997.76,1003.88,-402.83,-915.53,-85.45
19/7/2026,16:35:38,353.27,-659.91,-723.63,1041.12,2214.32,439.45,-1220.7,-1794.43
19/7/2026,16:35:38,344.73,-665.77,-711.91,1033.88,782.11,-427.25,-292.97,585.94
19/7/2026,16:35:38,328.37,-645.75,-708.98,1013.65,1300.89,-817.87,1000.98,146.48
19/7/2026,16:35:38,315.19,-640.62,-697.75,998.3,903.07,-659.18,256.35,561.52
19/7/2026,16:35:38,336.43,-630.13,-726.56,1018.89,1865,1062.01,524.9,-1440.43
19/7/2026,16:35:38,333.98,-623.05,-723.88,1011.8,397.81,-122.07,354,134.28
19/7/2026,16:35:38,333.98,-615.48,-701.9,991.48,1161.98,0,378.42,1098.63
19/7/2026,16:35:38,339.84,-618.16,-701.17,994.62,324.35,292.97,-134.28,36.62
19/7/2026,16:35:38,349.85,-628.42,-698,1002.25,733.84,500.49,-512.7,158.69
19/7/2026,16:35:38,349.85,-642.82,-696.29,1010.17,725.27,0,-720.21,85.45
19/7/2026,16:35:38,328.61,-633.79,-660.4,972.52,2133.51,-1062.01,451.66,1794.43
19/7/2026,16:35:38,315.43,-630.37,-684.57,982.6,1387.15,-659.18,170.9,-1208.5
19/7/2026,16:35:38,314.7,-641.85,-704.83,1003.89,1164.92,-36.62,-573.73,-1013.18
19/7/2026,16:35:38,324.22,-625.24,-729,1013.65,1541.47,476.07,830.08,-1208.5
19/7/2026,16:35:38,310.79,-613.28,-712.89,990.41,1207.32,-671.39,598.14,805.66
19/7/2026,16:35:38,303.71,-602.05,-684.57,960.91,1563.88,-354,561.52,1416.02
19/7/2026,16:35:38,305.66,-598.14,-689.45,962.58,327.55,97.66,195.31,-244.14
19/7/2026,16:35:38,366.94,-604.49,-797.12,1065.58,6202.3,3063.96,-317.38,-5383.3
19/7/2026,16:35:38,419.43,-606.45,-918.21,1177.63,6599.76,2624.51,-97.66,-6054.69
19/7/2026,16:35:38,373.78,-544.43,-799.8,1037.21,7062.27,-2282.71,3100.59,5920.41
19/7/2026,16:35:38,297.36,-533.2,-639.16,883.89,8912.38,-3820.8,561.52,8032.23
19/7/2026,16:35:38,304.2,-582.28,-650.63,924.61,2542.87,341.8,-2453.61,-573.73
19/7/2026,16:35:38,321.78,-649.66,-760.5,1050.69,6503.72,878.91,-3369.14,-5493.16
19/7/2026,16:35:38,275.63,-660.4,-779.3,1058.02,2548.49,-2307.13,-537.11,-939.94
19/7/2026,16:35:38,213.13,-631.1,-716.55,978.35,4664.06,-3125,1464.84,3137.21
19/7/2026,16:35:38,193.12,-598.39,-720.95,956.62,1930.26,-1000.98,1635.74,-219.73
19/7/2026,16:35:38,241.94,-596.19,-802.73,1028.77,4763.97,2441.41,109.86,-4089.36
19/7/2026,16:35:38,279.3,-575.68,-795.17,1020.64,2163.99,1867.68,1025.39,378.42
19/7/2026,16:35:38,295.17,-539.79,-750,970.05,2991.57,793.46,1794.43,2258.3
19/7/2026,16:35:38,340.33,-525.15,-776.86,997.55,2727.53,2258.3,732.42,-1342.77
19/7/2026,16:35:38,365.97,-541.99,-807.62,1039.2,2172.1,1281.74,-842.29,-1538.09
19/7/2026,16:35:38,345.46,-532.47,-800.54,1021.63,1184.65,-1025.39,476.07,354
19/7/2026,16:35:38,282.71,-522.46,-758.54,963.47,3808.01,-3137.21,500.49,2099.61
19/7/2026,16:35:38,228.27,-537.11,-748.05,948.77,2867.43,-2722.17,-732.42,524.9
19/7/2026,16:35:38,208.74,-547.12,-822.27,1009.47,3869.78,-976.56,-500.49,-3710.94
19/7/2026,16:35:38,191.89,-537.35,-853.52,1026.67,1841,-842.28,488.28,-1562.5
19/7/2026,16:35:38,205.57,-541.26,-840.09,1020.28,977.86,683.59,-195.31,671.39
19/7/2026,16:35:38,247.31,-553.22,-798.1,1002.09,3020.49,2087.4,-598.14,2099.61
19/7/2026,16:35:38,278.08,-545.17,-746.58,965.36,3026.9,1538.09,402.83,2575.68
19/7/2026,16:35:39,284.18,-538.82,-658.94,897.37,4404.39,305.18,317.38,4382.32
19/7/2026,16:35:39,315.19,-550.78,-669.68,922.59,1746.33,1550.29,-598.14,-537.11
19/7/2026,16:35:39,257.57,-531.98,-554.69,810.57,6499.21,-2880.86,939.94,5749.51
19/7/2026,16:35:39,213.13,-437.74,-567.38,747.64,5247.94,-2221.68,4711.91,-634.77
19/7/2026,16:35:39,79.83,-357.42,-509.03,627.09,8310.45,-6665.04,4016.11,2917.48
19/7/2026,16:35:39,-365.72,6.84,537.35,650.04,59710.34,-22277.83,18212.89,52319.34
19/7/2026,16:35:39,-307.62,144.53,194.09,391.39,18719.3,2905.27,6884.77,-17163.09
19/7/2026,16:35:39,582.03,-212.4,-2000,2093.77,119717.53,44482.42,-17846.68,-109704.59
19/7/2026,16:35:39,-421.87,163.33,-34.18,453.68,111953.7,-50195.31,18786.62,98291.02
19/7/2026,16:35:39,254.88,184.57,-241.94,396.95,35412.5,33837.89,1062.01,-10388.18
19/7/2026,16:35:39,1205.57,-718.26,-695.56,1566.23,69366.24,47534.18,-45141.6,-22680.66
19/7/2026,16:35:39,1357.18,-1353.52,-87.16,1918.73,44628.53,7580.57,-31762.7,30419.92
19/7/2026,16:35:39,870.12,-472.17,161.62,1003.08,51862.63,-24353.03,44067.38,12438.96
19/7/2026,16:35:39,362.79,-10.01,183.84,406.84,34331.53,-25366.21,23107.91,1110.84
19/7/2026,16:35:39,294.43,458.74,244.87,597.58,23881.21,-3417.97,23437.5,3051.76
19/7/2026,16:35:39,495.36,110.84,56.64,510.76,22183.22,10046.39,-17395.02,-9411.62
19/7/2026,16:35:39,949.46,754.64,-996.83,1569.91,65773.8,22705.08,32189.94,-52673.34
19/7/2026,16:35:39,462.16,1133.54,-845.7,1487.86,31775.54,-24365.23,18945.31,7556.15
19/7/2026,16:35:39,50.54,1300.05,-746.58,1500.02,22747.55,-20581.05,8325.2,4956.05
19/7/2026,16:35:39,-155.52,1078.61,-552.73,1221.93,17963.1,-10302.73,-11071.78,9692.38
19/7/2026,16:35:39,-82.52,1067.38,-413.33,1147.59,7888.03,3649.9,-561.52,6970.21
19/7/2026,16:35:39,195.31,1541.75,-510.5,1635.77,27913.02,13891.6,23718.26,-4858.4
19/7/2026,16:35:39,565.67,1999.94,-872.07,2253.94,34563.02,18518.07,22909.55,-18078.61
19/7/2026,16:35:39,887.94,1999.94,-1468.75,2635.42,33907.29,16113.28,0,-29833.98
19/7/2026,16:35:39,1791.99,1999.94,-2000,3348.28,52429.43,45202.64,0,-26562.5
19/7/2026,16:35:39,1999.94,974.85,-2000,2991.67,52298.23,10397.34,-51254.27,0
19/7/2026,16:35:39,-2000,1999.94,1999.94,3464.03,287444.88,-199996.95,51254.27,199996.95
19/7/2026,16:35:39,1099.12,-222.41,-2000,2292.93,276328.19,154956.06,-111117.55,-199996.95
19/7/2026,16:35:39,1931.64,-692.63,-2000,2865.48,47806.67,41625.98,-23510.74,0
19/7/2026,16:35:39,153.56,-1821.53,-2000,2709.53,105308.89,-88903.82,-56445.31,0
19/7/2026,16:35:39,-1304.44,-1576.17,-2000,2861.1,73925.45,-72900.39,12268.06,0
19/7/2026,16:35:39,-1844.24,271.48,-734.13,2003.46,115191.55,-26989.75,92382.81,63293.46
19/7/2026,16:35:39,-1067.87,-163.09,-1625.49,1951.71,62970.54,38818.36,-21728.52,-44567.87
19/7/2026,16:35:39,-189.21,-391.36,-1232.67,1307.07,49458.68,43933.11,-11413.57,19641.11
19/7/2026,16:35:39,-703.61,696.04,-1387.94,1704.68,60645.8,-25720.21,54370.12,-7763.67
19/7/2026,16:35:39,573.49,-80.08,-2000,2082.14,80746.03,63854.98,-38806.15,-30603.03
19/7/2026,16:35:39,942.14,-1796.14,-2000,2848.47,87760.78,18432.62,-85803.23,0
19/7/2026,16:35:39,-1574.22,739.75,1999.94,2650.5,268152.47,-125817.88,126794.44,199996.95
19/7/2026,16:35:39,-250.49,168.95,-1478.52,1509.07,188266.58,66186.52,-28540.04,-173922.73
19/7/2026,16:35:39,-1174.56,-205.08,101.81,1196.67,93424.06,-46203.61,-18701.17,79016.12
19/7/2026,16:35:39,548.83,33.69,-2000,2074.21,136424.63,86169.44,11938.48,-105090.34
19/7/2026,16:35:39,-758.54,425.29,111.33,876.73,125700.86,-65368.65,19580.08,105566.41
19/7/2026,16:35:39,-453.86,-145.75,-748.29,887.23,53802.23,15234.37,-28552.25,-42980.96
19/7/2026,16:35:39,-541.5,-16.36,-855.71,1012.79,9482.13,-4382.32,6469.73,-5371.09
19/7/2026,16:35:39,-740.72,-285.64,-1198,1437.17,23945.92,-9960.94,-13464.36,-17114.26
19/7/2026,16:35:39,-1427.49,282.96,-711.43,1619.85,50786.62,-34338.38,28430.18,24328.61
19/7/2026,16:35:39,-898.93,-308.11,-725.1,1195.31,39652.38,26428.22,-29553.22,-683.59
19/7/2026,16:35:39,-674.07,-112.55,-676.51,961.62,15096.51,11242.68,9777.83,2429.2
19/7/2026,16:35:39,-556.15,-106.2,-617.68,837.92,6596.84,5896,317.38,2941.89
19/7/2026,16:35:39,-452.64,-23.19,-710.69,842.91,8102.17,5175.78,4150.39,-4650.88
19/7/2026,16:35:40,-506.35,95.21,-618.41,804.91,7972.13,-2685.55,5920.41,4614.26
19/7/2026,16:35:40,-585.21,148.19,-685.06,913.09,5802.48,-3942.87,2648.93,-3332.52
19/7/2026,16:35:40,-696.29,133.06,-688.96,988.53,5608.93,-5554.2,-756.84,-195.31
19/7/2026,16:35:40,-757.32,49.56,-776.37,1085.7,6770.54,-3051.76,-4174.8,-4370.12
19/7/2026,16:35:40,-802,-42.24,-781.25,1120.42,5110.43,-2233.89,-4589.84,-244.14
19/7/2026,16:35:40,-808.11,-120.85,-754.39,1112.09,4164.89,-305.18,-3930.66,1342.77
19/7/2026,16:35:40,-763.92,-154.54,-764.4,1091.68,2823.12,2209.47,-1684.57,-500.49
19/7/2026,16:35:40,-715.33,-142.58,-757.81,1051.81,2523.37,2429.2,598.14,329.59
19/7/2026,16:35:40,-668.46,-64.45,-727.54,990.1,4800.33,2343.75,3906.25,1513.67
19/7/2026,16:35:40,-635.01,9.77,-711.67,953.84,4146.98,1672.36,3710.94,793.46
19/7/2026,16:35:40,-619.63,70.8,-701.9,938.95,3184.82,769.04,3051.76,488.28
19/7/2026,16:35:40,-621.34,93.02,-700.2,940.74,1117.39,-85.45,1110.84,85.45
19/7/2026,16:35:40,-640.87,72.02,-700.93,952.47,1434.26,-976.56,-1049.8,-36.62
19/7/2026,16:35:40,-660.16,16.6,-714.6,973,3012.59,-964.36,-2771,-683.59
19/7/2026,16:35:40,-683.84,-37.35,-729,1000.24,3032.93,-1184.08,-2697.75,-720.21
19/7/2026,16:35:40,-710.45,-81.3,-743.41,1031.51,2667.79,-1330.57,-2197.27,-720.21
19/7/2026,16:35:40,-726.32,-90.33,-747.8,1046.38,939.07,-793.46,-451.66,-219.73
19/7/2026,16:35:40,-726.07,-73.73,-753.17,1048.76,872.53,12.21,830.08,-268.55
19/7/2026,16:35:40,-710.69,-33.45,-742.92,1028.66,2216.11,769.04,2014.16,512.7
19/7/2026,16:35:40,-686.28,1.46,-733.64,1004.6,2180.01,1220.7,1745.61,463.87
19/7/2026,16:35:40,-659.18,23.44,-732.67,985.83,1745.09,1354.98,1098.63,48.83
19/7/2026,16:35:40,-641.85,26.61,-720.46,965.26,1071.86,866.7,158.69,610.35
19/7/2026,16:35:40,-633.06,14.4,-712.16,952.96,859.01,439.45,-610.35,415.04
19/7/2026,16:35:40,-637.21,-3.91,-716.55,958.9,964.12,-207.52,-915.53,-219.73
19/7/2026,16:35:40,-660.16,-22.22,-731.93,985.91,1657.19,-1147.46,-915.53,-769.04
19/7/2026,16:35:40,-685.79,-35.64,-733.15,1004.54,1448.22,-1281.74,-671.39,-61.04
19/7/2026,16:35:40,-702.15,-36.38,-740.23,1020.92,891.95,-817.87,-36.62,-354
19/7/2026,16:35:40,-708.25,-37.35,-741.94,1026.4,320.65,-305.18,-48.83,-85.45
19/7/2026,16:35:40,-699.22,-23.93,-746.34,1022.99,838.47,451.66,671.39,-219.73
19/7/2026,16:35:40,-681.15,-15.38,-741.94,1007.32,1023.14,903.32,427.25,219.73
19/7/2026,16:35:40,-665.04,-9.03,-731.45,988.62,1012.6,805.66,317.38,524.9
19/7/2026,16:35:40,-651.37,-2.69,-727.05,976.16,785.06,683.59,317.38,219.73
19/7/2026,16:35:40,-645.75,-6.1,-725.34,971.16,339.61,280.76,-170.9,85.45
19/7/2026,16:35:40,-642.82,-8.79,-734.62,976.2,504.64,146.48,-134.28,-463.87
19/7/2026,16:35:40,-661.87,-9.28,-733.4,987.94,954.41,-952.15,-24.41,61.04
19/7/2026,16:35:40,-674.56,-16.11,-730.96,994.78,731.2,-634.77,-341.8,122.07
19/7/2026,16:35:40,-680.66,-18.8,-745.36,1009.56,793.64,-305.18,-134.28,-720.21
19/7/2026,16:35:40,-687.99,-28.81,-748.29,1016.91,637.23,-366.21,-500.49,-146.48
19/7/2026,16:35:40,-682.62,-21.48,-745.36,1010.94,477.17,268.55,366.21,146.48
19/7/2026,16:35:40,-675.29,-24.66,-730.96,995.45,823.41,366.21,-158.69,720.21
19/7/2026,16:35:40,-666.5,-12.94,-741.21,996.89,894.03,439.45,585.94,-512.7
19/7/2026,16:35:40,-662.6,-12.45,-739.75,993.18,210.02,195.31,24.41,73.24
19/7/2026,16:35:40,-662.11,-8.79,-731.2,986.47,465.47,24.41,183.11,427.25
19/7/2026,16:35:40,-660.89,-10.99,-735.35,988.76,242.61,61.04,-109.86,-207.52
19/7/2026,16:35:40,-662.6,-12.21,-737.3,991.36,143.4,-85.45,-61.04,-97.66
19/7/2026,16:35:40,-664.31,-15.87,-738.04,993.1,205.35,-85.45,-183.11,-36.62
19/7/2026,16:35:40,-670.9,-19.78,-733.89,994.53,435.71,-329.59,-195.31,207.52
19/7/2026,16:35:40,-674.8,-19.53,-744.14,1004.73,548.77,-195.31,12.21,-512.7
19/7/2026,16:35:40,-671.63,-22.71,-742.19,1001.22,244.75,158.69,-158.69,97.66
19/7/2026,16:35:40,-675.29,-14.65,-739.75,1001.73,459.02,-183.11,402.83,122.07
19/7/2026,16:35:41,-668.46,-19.04,-744.14,1000.47,461.94,341.8,-219.73,-219.73
19/7/2026,16:35:41,-660.64,-13.18,-739.01,991.35,551.48,390.62,292.97,256.35
19/7/2026,16:35:41,-659.18,-10.99,-739.5,990.71,134.28,73.24,109.86,-24.41
19/7/2026,16:35:41,-655.76,-15.87,-744.14,991.98,377.63,170.9,-244.14,-231.93
19/7/2026,16:35:41,-659.18,-13.67,-736.08,988.19,451.17,-170.9,109.86,402.83
19/7/2026,16:35:41,-665.77,-11.23,-741.94,996.92,457.56,-329.59,122.07,-292.97
19/7/2026,16:35:41,-666.75,-20.26,-740.97,996.99,456.91,-48.83,-451.66,48.83
19/7/2026,16:35:41,-668.21,-21.73,-742.68,999.27,134.28,-73.24,-73.24,-85.45
19/7/2026,16:35:41,-672.61,-22.95,-744.38,1003.51,243.53,-219.73,-61.04,-85.45
19/7/2026,16:35:41,-669.19,-22.95,-743.41,1000.5,177.74,170.9,0,48.83
19/7/2026,16:35:41,-663.82,-21.24,-740.23,994.51,323.43,268.55,85.45,158.69
19/7/2026,16:35:41,-658.2,-18.8,-742.43,992.37,325.27,280.76,122.07,-109.86
19/7/2026,16:35:41,-659.67,-17.82,-733.64,986.77,448.18,-73.24,48.83,439.45
19/7/2026,16:35:41,-664.06,-16.85,-739.26,993.86,359.85,-219.73,48.83,-280.76
19/7/2026,16:35:41,-661.13,-19.04,-744.14,995.59,305.18,146.48,-109.86,-244.14
19/7/2026,16:35:41,-670.17,-20.26,-738.04,997.11,548.5,-451.66,-61.04,305.18
19/7/2026,16:35:41,-670.41,-25.63,-733.64,994.15,347.2,-12.21,-268.55,219.73
19/7/2026,16:35:41,-672.61,-24.41,-742.19,1001.92,445.35,-109.86,61.04,-427.25
19/7/2026,16:35:41,-664.06,-21.24,-745.85,998.86,491.17,427.25,158.69,-183.11
19/7/2026,16:35:41,-656.98,-17.82,-741.7,990.99,444.51,354,170.9,207.52
19/7/2026,16:35:41,-662.84,-18.31,-734.62,989.63,460.16,-292.97,-24.41,354
19/7/2026,16:35:41,-664.55,-14.4,-736.82,992.34,239.83,-85.45,195.31,-109.86
19/7/2026,16:35:41,-666.02,-16.36,-751.22,1004.08,730.49,-73.24,-97.66,-720.21
19/7/2026,16:35:41,-667.48,-18.07,-735.35,993.28,801.4,-73.24,-85.45,793.46
19/7/2026,16:35:41,-664.55,-21,-742.19,996.45,399.68,146.48,-146.48,-341.8
19/7/2026,16:35:41,-665.04,-23.19,-740.48,995.55,141.31,-24.41,-109.86,85.45
19/7/2026,16:35:41,-660.89,-23.68,-737.06,990.25,269.94,207.52,-24.41,170.9
19/7/2026,16:35:41,-667.97,-24.41,-736.08,994.28,359.23,-354,-36.62,48.83
19/7/2026,16:35:41,-662.84,-21.97,-742.92,995.88,444.34,256.35,122.07,-341.8
19/7/2026,16:35:41,-664.79,-19.29,-741.46,996.03,181.47,-97.66,134.28,73.24
19/7/2026,16:35:41,-668.7,-19.78,-736.33,994.85,323.2,-195.31,-24.41,256.35
19/7/2026,16:35:41,-663.82,-21.48,-735.6,991.07,261.24,244.14,-85.45,36.62
19/7/2026,16:35:41,-663.33,-20.26,-747.8,999.81,613.88,24.41,61.04,-610.35
19/7/2026,16:35:41,-661.87,-20.51,-745.61,997.2,132.6,73.24,-12.21,109.86
19/7/2026,16:35:41,-664.06,-20.02,-739.75,994.29,313.84,-109.86,24.41,292.97
19/7/2026,16:35:41,-666.26,-21.48,-742.68,997.96,197.21,-109.86,-73.24,-146.48
19/7/2026,16:35:41,-665.04,-22.71,-741.21,996.09,113.2,61.04,-61.04,73.24
19/7/2026,16:35:41,-662.6,-21.48,-745.85,997.89,269.11,122.07,61.04,-231.93
19/7/2026,16:35:41,-660.16,-22.71,-744.63,995.39,149.5,122.07,-61.04,61.04
19/7/2026,16:35:41,-659.42,-20.26,-741.46,992.47,203.53,36.62,122.07,158.69
19/7/2026,16:35:41,-658.2,-20.51,-738.77,989.66,148,61.04,-12.21,134.28
19/7/2026,16:35:41,-663.82,-19.78,-746.34,999.03,472.62,-280.76,36.62,-378.42
19/7/2026,16:35:41,-666.75,-20.51,-740.97,997,308.09,-146.48,-36.62,268.55
19/7/2026,16:35:41,-665.77,-19.29,-741.94,997.05,92.16,48.83,61.04,-48.83
19/7/2026,16:35:41,-660.64,-24.66,-746.34,997.04,431.41,256.35,-268.55,-219.73
19/7/2026,16:35:41,-663.09,-23.93,-736.57,991.36,504.64,-122.07,36.62,488.28
19/7/2026,16:35:41,-662.84,-24.17,-744.14,996.84,378.81,12.21,-12.21,-378.42
19/7/2026,16:35:41,-665.53,-22.46,-745.36,999.5,170.46,-134.28,85.45,-61.04
19/7/2026,16:35:41,-662.35,-23.44,-744.38,996.68,173.06,158.69,-48.83,48.83
19/7/2026,16:35:41,-656.98,-18.55,-734.86,985.9,598.64,268.55,244.14,476.07
19/7/2026,16:35:42,-661.87,-23.44,-740.72,993.62,452.81,-244.14,-244.14,-292.97
19/7/2026,16:35:42,-662.35,-20.51,-741.46,994.43,152.95,-24.41,146.48,-36.62
19/7/2026,16:35:42,-664.31,-22.46,-740.48,995.05,146.48,-97.66,-97.66,48.83
19/7/2026,16:35:42,-663.33,-27.59,-741.46,995.25,265.49,48.83,-256.35,-48.83
19/7/2026,16:35:42,-659.67,-25.15,-740.48,992.02,225.42,183.11,122.07,48.83
19/7/2026,16:35:42,-657.71,-25.63,-732.42,984.73,415.22,97.66,-24.41,402.83
19/7/2026,16:35:42,-667.97,-21.73,-740.48,997.48,680.64,-512.7,195.31,-402.83
19/7/2026,16:35:42,-665.28,-23.93,-737.55,993.56,227.06,134.28,-109.86,146.48
19/7/2026,16:35:42,-666.26,-26.61,-745.36,1000.09,415.94,-48.83,-134.28,-390.62
19/7/2026,16:35:42,-660.89,-25.88,-741.21,993.4,341.36,268.55,36.62,207.52
19/7/2026,16:35:42,-661.38,-23.19,-743.65,995.48,183.11,-24.41,134.28,-122.07
19/7/2026,16:35:42,-662.6,-20.75,-746.83,998.61,209.31,-61.04,122.07,-158.69
19/7/2026,16:35:42,-662.6,-19.53,-744.14,996.58,147.5,0,61.04,134.28
19/7/2026,16:35:42,-666.02,-25.63,-738.28,994.63,456.26,-170.9,-305.18,292.97
19/7/2026,16:35:42,-660.4,-24.41,-742.92,994.31,369.25,280.76,61.04,-231.93
19/7/2026,16:35:42,-663.57,-24.66,-747.8,1000.07,291.44,-158.69,-12.21,-244.14
19/7/2026,16:35:42,-661.87,-25.63,-746.34,997.87,122.68,85.45,-48.83,73.24
19/7/2026,16:35:42,-670.41,-28.08,-710.69,977.41,1836.78,-427.25,-122.07,1782.23
19/7/2026,16:35:42,-635.99,-18.31,-774.66,1002.45,3664.65,1721.19,488.28,-3198.24
19/7/2026,16:35:42,-702.15,-25.63,-670.65,971.31,6174.12,-3308.11,-366.21,5200.2
19/7/2026,16:35:42,-626.71,-37.84,-802.49,1018.91,7619.19,3771.97,-610.35,-6591.8
19/7/2026,16:35:42,-702.64,-27.83,-722.66,1008.32,5531.43,-3796.39,500.49,3991.7
19/7/2026,16:35:42,-649.9,-43.7,-735.35,982.36,2825.74,2636.72,-793.46,-634.77
19/7/2026,16:35:42,-595.95,57.62,-845.95,1036.39,7969.94,2697.75,5065.92,-5529.79
19/7/2026,16:35:42,-738.77,-20.26,-624.51,967.58,13738.39,-7141.11,-3894.04,11071.78
19/7/2026,16:35:42,-780.27,-8.06,-819.09,1131.28,9966.57,-2075.2,610.35,-9729.01
19/7/2026,16:35:42,-651.12,23.19,-791.26,1024.98,6788.04,6457.52,1562.5,1391.6
19/7/2026,16:35:42,-627.2,29.54,-725.59,959.54,3509.2,1196.29,317.38,3283.69
19/7/2026,16:35:42,-669.43,-50.78,-758.54,1012.97,4827.49,-2111.82,-4016.11,-1647.95
19/7/2026,16:35:42,-625.24,28.56,-747.07,974.61,4577.15,2209.47,3967.29,573.73
19/7/2026,16:35:42,-653.56,-3.91,-756.84,999.98,2208.93,-1416.02,-1623.54,-488.28
19/7/2026,16:35:42,-650.15,-0.73,-756.1,997.19,236.07,170.9,158.69,36.62
19/7/2026,16:35:42,-646.97,-1.71,-750.24,990.68,336.75,158.69,-48.83,292.97
19/7/2026,16:35:42,-652.1,5.62,-760.25,1001.62,671.05,-256.35,366.21,-500.49
19/7/2026,16:35:42,-650.15,-2.69,-749.27,992.02,695.37,97.66,-415.04,549.32
19/7/2026,16:35:42,-650.88,0.49,-748.54,991.94,166.93,-36.62,158.69,36.62
19/7/2026,16:35:42,-652.34,-2.2,-759.03,1000.84,546.73,-73.24,-134.28,-524.9
19/7/2026,16:35:42,-649.41,4.15,-754.88,995.79,406.51,146.48,317.38,207.52
19/7/2026,16:35:42,-654.79,1.46,-743.16,990.47,658.39,-268.55,-134.28,585.94
19/7/2026,16:35:42,-647.22,6.1,-753.66,993.45,687.4,378.42,231.93,-524.9
19/7/2026,16:35:42,-650.39,1.46,-755.13,996.61,290.41,-158.69,-231.93,-73.24
19/7/2026,16:35:42,-650.39,3.91,-756.35,997.54,136.48,0,122.07,-61.04
19/7/2026,16:35:42,-649.17,0,-753.91,994.89,238.27,61.04,-195.31,122.07
19/7/2026,16:35:42,-650.15,4.64,-750.49,992.95,292.2,-48.83,231.93,170.9
19/7/2026,16:35:42,-647.22,1.22,-752.2,992.32,240.76,146.48,-170.9,-85.45
19/7/2026,16:35:42,-648.68,0.24,-753.91,994.57,122.68,-73.24,-48.83,-85.45
19/7/2026,16:35:42,-648.19,2.2,-755.62,995.55,132.04,24.41,97.66,-85.45
19/7/2026,16:35:42,-649.66,2.69,-759.03,999.1,187.53,-73.24,24.41,-170.9
19/7/2026,16:35:42,-655.52,-1.46,-756.84,1001.25,375.45,-292.97,-207.52,109.86
19/7/2026,16:35:42,-648.68,2.44,-754.64,995.12,408.71,341.8,195.31,109.86
19/7/2026,16:35:43,-649.17,-1.46,-756.59,996.92,219.73,-24.41,-195.31,-97.66
19/7/2026,16:35:43,-651.37,2.44,-754.64,996.88,244.45,-109.86,195.31,97.66
19/7/2026,16:35:43,-649.17,-0.24,-758.3,998.22,252.25,109.86,-134.28,-183.11
19/7/2026,16:35:43,-649.17,0.49,-752.93,994.15,271.04,0,36.62,268.55
19/7/2026,16:35:43,-649.17,2.2,-754.88,995.63,129.76,0,85.45,-97.66
19/7/2026,16:35:43,-651.12,1.71,-755.62,997.46,107.12,-97.66,-24.41,-36.62
19/7/2026,16:35:43,-650.63,5.13,-751.71,994.19,260.67,24.41,170.9,195.31
19/7/2026,16:35:43,-649.17,2.69,-756.35,996.74,272.14,73.24,-122.07,-231.93
19/7/2026,16:35:43,-648.44,0.98,-751.71,992.74,249.87,36.62,-85.45,231.93
19/7/2026,16:35:43,-651.37,2.69,-756.59,998.36,297.26,-146.48,85.45,-244.14
19/7/2026,16:35:43,-646.97,0.98,-746.09,987.54,575.42,219.73,-85.45,524.9
19/7/2026,16:35:43,-651.12,2.93,-760.01,1000.79,732.63,-207.52,97.66,-695.8
19/7/2026,16:35:43,-651.86,0.24,-750.73,994.24,484.3,-36.62,-134.28,463.87
19/7/2026,16:35:43,-650.15,3.42,-761.47,1001.27,566.54,85.45,158.69,-537.11
19/7/2026,16:35:43,-648.19,4.64,-757.32,996.85,237.33,97.66,61.04,207.52
19/7/2026,16:35:43,-649.17,-0.49,-753.17,994.33,333.41,-48.83,-256.35,207.52
19/7/2026,16:35:43,-651.37,-0.98,-747.07,991.16,325.27,-109.86,-24.41,305.18
19/7/2026,16:35:43,-649.66,1.46,-752.2,993.91,296.51,85.45,122.07,-256.35
19/7/2026,16:35:43,-651.12,0.98,-751.22,994.13,91.35,-73.24,-24.41,48.83
19/7/2026,16:35:43,-650.88,2.69,-753.42,995.64,139.72,12.21,85.45,-109.86
19/7/2026,16:35:43,-648.19,1.22,-757.32,996.84,248.08,134.28,-73.24,-195.31
19/7/2026,16:35:43,-651.61,2.93,-750.73,994.09,380.97,-170.9,85.45,329.59
19/7/2026,16:35:43,-645.51,0,-751.95,991.02,343.97,305.18,-146.48,-61.04
19/7/2026,16:35:43,-650.39,3.42,-761.23,1001.24,551.35,-244.14,170.9,-463.87
19/7/2026,16:35:43,-648.44,-0.24,-755.37,995.52,359.02,97.66,-183.11,292.97
19/7/2026,16:35:43,-650.39,0.24,-751.71,994.02,208.95,-97.66,24.41,183.11
19/7/2026,16:35:43,-647.46,1.71,-757.32,996.37,325.04,146.48,73.24,-280.76
19/7/2026,16:35:43,-650.63,3.42,-750,992.89,408.16,-158.69,85.45,366.21
19/7/2026,16:35:43,-651.12,0,-757.57,998.93,415.94,-24.41,-170.9,-378.42
19/7/2026,16:35:43,-648.68,2.2,-753.66,994.38,255.18,122.07,109.86,195.31
19/7/2026,16:35:43,-647.71,1.46,-750.24,991.16,181.47,48.83,-36.62,170.9
19/7/2026,16:35:43,-647.71,3.17,-754.88,994.68,247.17,0,85.45,-231.93
19/7/2026,16:35:43,-652.34,1.46,-753.91,996.96,251.95,-231.93,-85.45,48.83
19/7/2026,16:35:43,-650.15,1.95,-753.42,995.15,115.16,109.86,24.41,24.41
19/7/2026,16:35:43,-648.68,3.42,-752.93,993.83,106.42,73.24,73.24,24.41
19/7/2026,16:35:43,-650.39,4.15,-758.54,999.21,295.75,-85.45,36.62,-280.76
19/7/2026,16:35:43,-649.66,4.64,-755.13,996.14,176.48,36.62,24.41,170.9
19/7/2026,16:35:43,-650.15,0,-752.2,994.23,275.4,-24.41,-231.93,146.48
19/7/2026,16:35:43,-647.71,1.46,-753.91,993.93,166.03,122.07,73.24,-85.45
19/7/2026,16:35:43,-650.15,4.88,-755.62,996.83,226.74,-122.07,170.9,-85.45
19/7/2026,16:35:43,-650.15,0.49,-755.37,996.63,220.07,0,-219.73,12.21
19/7/2026,16:35:43,-645.02,1.46,-755.62,993.48,261.24,256.35,48.83,-12.21
19/7/2026,16:35:43,-648.19,5.62,-752.44,993.15,305.66,-158.69,207.52,158.69
19/7/2026,16:35:43,-646.24,0.98,-756.1,994.65,311.22,97.66,-231.93,-183.11
19/7/2026,16:35:43,-648.93,5.86,-753.42,994.37,309.3,-134.28,244.14,134.28
19/7/2026,16:35:43,-650.88,2.69,-755.13,996.93,204.99,-97.66,-158.69,-85.45
19/7/2026,16:35:43,-647.95,6.1,-752.69,993.18,256.06,146.48,170.9,122.07
19/7/2026,16:35:43,-653.81,1.22,-751.95,996.44,383.11,-292.97,-244.14,36.62
19/7/2026,16:35:43,-651.37,4.39,-748.78,992.46,255.47,122.07,158.69,158.69
19/7/2026,16:35:43,-653.32,0.73,-753.17,997.05,302.23,-97.66,-183.11,-219.73
19/7/2026,16:35:44,-649.9,6.1,-749.76,992.24,361.3,170.9,268.55,170.9
19/7/2026,16:35:44,-649.17,2.69,-751.22,992.86,189.5,36.62,-170.9,-73.24
19/7/2026,16:35:44,-649.17,0,-755.86,996.37,268,0,-134.28,-231.93
19/7/2026,16:35:44,-650.15,4.39,-751.95,994.05,298.01,-48.83,219.73,195.31
19/7/2026,16:35:44,-650.39,3.17,-750.98,993.47,79.11,-12.21,-61.04,48.83
19/7/2026,16:35:44,-650.15,-0.24,-753.91,995.52,225.42,12.21,-170.9,-146.48
19/7/2026,16:35:44,-648.93,2.44,-751.71,993.06,183.92,61.04,134.28,109.86
19/7/2026,16:35:44,-649.17,5.62,-756.59,996.94,291.44,-12.21,158.69,-244.14
19/7/2026,16:35:44,-649.17,1.22,-755.86,996.37,222.76,0,-219.73,36.62
19/7/2026,16:35:44,-648.44,1.71,-758.06,997.56,118.35,36.62,24.41,-109.86
19/7/2026,16:35:44,-653.56,0.73,-752.69,996.84,374.46,-256.35,-48.83,268.55
19/7/2026,16:35:44,-646.48,3.91,-751.71,991.48,391.01,354,158.69,48.83
19/7/2026,16:35:44,-652.59,1.46,-750.98,994.91,330.72,-305.18,-122.07,36.62
19/7/2026,16:35:44,-649.17,5.13,-753.42,994.53,278.63,170.9,183.11,-122.07
19/7/2026,16:35:44,-654.54,3.17,-751.95,996.93,295,-268.55,-97.66,73.24
19/7/2026,16:35:44,-646.97,-0.98,-758.06,996.61,528.58,378.42,-207.52,-305.18
19/7/2026,16:35:44,-650.15,1.22,-753.66,995.34,292.46,-158.69,109.86,219.73
19/7/2026,16:35:44,-649.9,2.2,-750.98,993.15,143.4,12.21,48.83,134.28
19/7/2026,16:35:44,-653.56,0,-750.49,995.18,214.93,-183.11,-109.86,24.41
19/7/2026,16:35:44,-652.83,3.42,-755.37,998.39,300.25,36.62,170.9,-244.14
19/7/2026,16:35:44,-650.88,0.49,-758.3,999.33,229.02,97.66,-146.48,-146.48
19/7/2026,16:35:44,-651.12,1.46,-751.46,994.32,345.48,-12.21,48.83,341.8
19/7/2026,16:35:44,-648.44,0.98,-753.42,994.04,167.82,134.28,-24.41,-97.66
19/7/2026,16:35:44,-650.63,6.35,-750.73,993.46,319.72,-109.86,268.55,134.28
19/7/2026,16:35:44,-649.66,0.73,-750.73,992.8,284.98,48.83,-280.76,0
19/7/2026,16:35:44,-652.59,-1.22,-754.39,997.49,254.01,-146.48,-97.66,-183.11
19/7/2026,16:35:44,-648.68,4.15,-758.54,998.1,391.58,195.31,268.55,-207.52
19/7/2026,16:35:44,-649.9,-1.22,-755.13,996.29,324.12,-61.04,-268.55,170.9
19/7/2026,16:35:44,-651.37,2.44,-753.66,996.14,210.37,-73.24,183.11,73.24
19/7/2026,16:35:44,-652.59,-2.44,-751.22,995.09,279.7,-61.04,-244.14,122.07
19/7/2026,16:35:44,-646.97,0.73,-751.22,991.42,322.51,280.76,158.69,0
19/7/2026,16:35:44,-649.17,1.46,-753.66,994.7,168.26,-109.86,36.62,-122.07
19/7/2026,16:35:44,-653.08,2.69,-753.66,997.26,204.63,-195.31,61.04,0
19/7/2026,16:35:44,-649.41,2.93,-750,992.09,259.24,183.11,12.21,183.11
19/7/2026,16:35:44,-645.75,-0.98,-756.1,994.33,405.96,183.11,-195.31,-305.18
19/7/2026,16:35:44,-649.41,1.46,-754.88,995.79,228.37,-183.11,122.07,61.04
19/7/2026,16:35:44,-653.32,1.95,-751.22,995.57,268.83,-195.31,24.41,183.11
19/7/2026,16:35:44,-651.12,7.57,-751.95,994.71,303.71,109.86,280.76,-36.62
19/7/2026,16:35:44,-648.68,-0.24,-750.24,991.79,418.08,122.07,-390.63,85.45
19/7/2026,16:35:44,-652.1,0,-755.62,998.09,318.55,-170.9,12.21,-268.55
19/7/2026,16:35:44,-653.32,3.17,-753.42,997.23,202.43,-61.04,158.69,109.86
19/7/2026,16:35:44,-651.37,-0.24,-750.24,993.55,252.84,97.66,-170.9,158.69
19/7/2026,16:35:44,-649.41,3.91,-752.93,994.31,265.77,97.66,207.52,-134.28
19/7/2026,16:35:44,-652.34,1.46,-756.84,999.18,272.96,-146.48,-122.07,-195.31
19/7/2026,16:35:44,-647.71,1.46,-756.35,995.78,233.22,231.93,0,24.41
19/7/2026,16:35:44,-650.63,2.2,-755.86,997.32,152.95,-146.48,36.62,24.41
19/7/2026,16:35:44,-650.63,1.71,-750.98,993.63,245.36,0,-24.41,244.14
19/7/2026,16:35:44,-646.73,-0.24,-752.93,992.55,239.21,195.31,-97.66,-97.66
19/7/2026,16:35:44,-647.95,2.44,-754.64,994.65,170.46,-61.04,134.28,-85.45
19/7/2026,16:35:44,-646.97,4.88,-751.22,991.43,215.62,48.83,122.07,170.9
19/7/2026,16:35:45,-647.46,1.71,-751.95,992.29,164.68,-24.41,-158.69,-36.62
19/7/2026,16:35:45,-651.61,3.17,-760.74,1001.67,491.48,-207.52,73.24,-439.45
19/7/2026,16:35:45,-650.63,2.44,-757.57,998.62,170.02,48.83,-36.62,158.69
19/7/2026,16:35:45,-648.19,4.39,-756.35,996.11,167.82,122.07,97.66,61.04
19/7/2026,16:36:15,967.04,-89.6,-174.56,986.75,2034.37,1440.43,1086.43,939.94
19/7/2026,16:36:15,1028.81,-83.25,-245.36,1060.93,4708.58,3088.38,317.38,-3540.04
19/7/2026,16:36:15,1076.66,-92.53,-315.19,1125.66,4257.72,2392.58,-463.87,-3491.21
19/7/2026,16:36:15,1034.42,-77.64,-241.21,1065.01,4323.75,-2111.82,744.63,3698.73
19/7/2026,16:36:15,959.96,-72.02,-191.16,981.46,4494.76,-3723.14,280.76,2502.44
19/7/2026,16:36:16,905.03,-63.48,-146.97,919.08,3550.78,-2746.58,427.25,2209.47
19/7/2026,16:36:16,907.23,-85.94,-154.79,924.34,1194.11,109.86,-1123.05,-390.62
19/7/2026,16:36:16,953.13,-108.15,-209.72,981.9,3747.58,2294.93,-1110.84,-2746.58
19/7/2026,16:36:16,985.11,-123.78,-281.74,1032.05,4016.87,1599.11,-781.25,-3601.07
19/7/2026,16:36:16,959.72,-112.79,-234.37,994.34,2742.56,-1269.53,549.32,2368.16
19/7/2026,16:36:16,977.05,-97.41,-271,1018.61,2166.88,866.7,769.04,-1831.06
19/7/2026,16:36:16,965.58,-71.78,-246.58,999.15,1860.68,-573.73,1281.74,1220.7
19/7/2026,16:36:16,965.33,-57.86,-221.44,992.09,1437.06,-12.2,695.8,1257.32
19/7/2026,16:36:16,1017.58,-55.42,-309.08,1064.93,5103.31,2612.3,122.07,-4382.32
19/7/2026,16:36:16,1012.45,-97.9,-268.07,1051.9,2963.59,-256.35,-2124.02,2050.78
19/7/2026,16:36:16,1007.08,-108.64,-251.46,1043.67,1024.52,-268.55,-537.11,830.08
19/7/2026,16:36:16,993.65,-108.15,-240.48,1028.04,867.82,-671.39,24.41,549.32
19/7/2026,16:36:16,976.32,-89.36,-251.22,1012.07,1386.77,-866.7,939.94,-537.11
19/7/2026,16:36:16,966.31,-59.33,-260.25,1002.5,1645.87,-500.49,1501.47,-451.66
19/7/2026,16:36:16,980.96,-52,-303.71,1028.21,2322.03,732.42,366.21,-2172.85
19/7/2026,16:36:16,990.97,-85.45,-328.37,1047.45,2137.14,500.49,-1672.36,-1232.91
19/7/2026,16:36:16,962.89,-115.23,-251.46,1001.83,4355.94,-1403.8,-1489.26,3845.21
19/7/2026,16:36:16,937.99,-128.91,-197.51,967.19,3048.85,-1245.12,-683.59,2697.75
19/7/2026,16:36:16,951.42,-139.16,-215.58,985.41,1236.77,671.39,-512.7,-903.32
19/7/2026,16:36:16,956.54,-114.01,-219.97,988.11,1301.87,256.35,1257.32,-219.73
19/7/2026,16:36:16,961.43,-72.02,-277.59,1003.29,3573.14,244.14,2099.61,-2880.86
19/7/2026,16:36:16,974.61,-59.08,-286.13,1017.46,1017.66,659.18,646.97,-427.25
19/7/2026,16:36:16,1000.49,-66.65,-345.95,1060.71,3280.54,1293.95,-378.42,-2990.72
19/7/2026,16:36:16,991.21,-57.13,-297.12,1036.36,2530.27,-463.87,476.07,2441.41
19/7/2026,16:36:16,966.06,-62.5,-248.54,999.48,2748.45,-1257.32,-268.55,2429.2
19/7/2026,16:36:16,985.84,-101.32,-261.47,1024.95,2272.31,988.77,-1940.92,-646.97
19/7/2026,16:36:16,1002.69,-103.27,-300.29,1051.77,2118.05,842.29,-97.66,-1940.92
19/7/2026,16:36:16,943.6,-89.36,-210.21,970.85,5431.43,-2954.1,695.8,4504.4
19/7/2026,16:36:16,939.21,-94.24,-231.93,972,1134.99,-219.73,-244.14,-1086.43
19/7/2026,16:36:16,972.66,-106.93,-288.33,1020.11,3339.33,1672.36,-634.77,-2819.82
19/7/2026,16:36:16,986.82,-99.61,-275.63,1029.42,1018.98,708.01,366.21,634.77
19/7/2026,16:36:16,1041.75,-86.91,-431.4,1130.88,8282.57,2746.58,634.77,-7788.09
19/7/2026,16:36:16,994.87,-164.06,-350.1,1067.36,6074.26,-2343.75,-3857.42,4064.94
19/7/2026,16:36:16,957.52,-89.84,-263.92,997.28,5985.6,-1867.67,3710.94,4309.08
19/7/2026,16:36:16,971.68,-87.65,-294.19,1019.01,1674.68,708,109.86,-1513.67
19/7/2026,16:36:16,994.38,-68.36,-311.04,1044.13,1711.2,1135.25,964.36,-842.29
19/7/2026,16:36:16,998.54,-75.2,-301.27,1045.7,631.12,207.52,-341.8,488.28
19/7/2026,16:36:16,948.73,-67.87,-225.83,977.6,4534.66,-2490.24,366.21,3771.97
19/7/2026,16:36:16,927.49,-45.65,-191.41,948.13,2307.45,-1062.01,1110.84,1721.19
19/7/2026,16:36:16,1019.53,-62.01,-346.19,1078.49,9041.23,4602.05,-817.87,-7739.26
19/7/2026,16:36:16,1025.63,-55.42,-326.9,1077.9,1063.83,305.18,329.59,964.36
19/7/2026,16:36:16,1003.17,-89.36,-322.51,1057.52,2046.6,-1123.05,-1696.78,219.73
19/7/2026,16:36:16,929.93,-72.51,-238.04,962.65,5653.28,-3662.11,842.29,4223.63
19/7/2026,16:36:16,912.6,-142.09,-272.95,963.08,3987.7,-866.7,-3479,-1745.6
19/7/2026,16:36:16,848.14,-75.68,-146,863.94,7855.11,-3222.66,3320.31,6347.66
19/7/2026,16:36:16,914.31,-107.18,-286.87,964.23,7939.37,3308.11,-1574.71,-7043.46
19/7/2026,16:36:16,929.44,-49.32,-265.38,967.85,3177.51,756.83,2893.07,1074.22
19/7/2026,16:36:16,956.05,-62.26,-278.56,997.75,1619.72,1330.57,-646.97,-659.18
19/7/2026,16:36:16,978.76,-38.09,-283.94,1019.82,1679.7,1135.25,1208.5,-268.55
19/7/2026,16:36:16,1001.71,-74.71,-338.87,1060.11,3494.73,1147.46,-1831.05,-2746.58
19/7/2026,16:36:17,1003.91,-69.82,-322.51,1056.75,860.57,109.86,244.14,817.87
19/7/2026,16:36:17,999.02,-121.34,-322.27,1056.71,2587.26,-244.14,-2575.68,12.21
19/7/2026,16:36:17,977.29,-89.36,-289.79,1023.26,2524.55,-1086.43,1599.12,1623.54
19/7/2026,16:36:17,932.13,-66.41,-283.94,976.67,2549.99,-2258.3,1147.46,292.97
19/7/2026,16:36:17,846.68,-52,-194.82,870.36,6214.88,-4272.46,720.22,4455.57
19/7/2026,16:36:17,852.05,-37.6,-190.19,873.83,802.89,268.56,720.21,231.93
19/7/2026,16:36:17,964.11,-38.09,-349.37,1026.17,9733.44,5603.02,-24.41,-7958.98
19/7/2026,16:36:17,1054.44,-64.21,-449.95,1148.23,6884.73,4516.6,-1306.15,-5029.3
19/7/2026,16:36:17,1033.94,-57.37,-413.57,1115.06,2115.76,-1025.39,341.8,1818.85
19/7/2026,16:36:17,969.97,-67.38,-338.87,1029.67,4942.88,-3198.24,-500.49,3735.35
19/7/2026,16:36:17,903.81,-69.82,-221.19,933.1,6751.11,-3308.11,-122.07,5883.79
19/7/2026,16:36:17,909.91,-81.79,-261.72,950.33,2134.73,305.18,-598.14,-2026.37
19/7/2026,16:36:17,906.74,-61.04,-224.61,936.14,2131.8,-158.69,1037.6,1855.47
19/7/2026,16:36:17,956.3,-38.33,-282.47,997.88,3974.83,2478.03,1135.25,-2893.07
19/7/2026,16:36:17,976.56,-8.06,-290.04,1018.76,1860.36,1013.18,1513.67,-378.42
19/7/2026,16:36:17,997.56,3.17,-296.39,1040.66,1232.12,1049.8,561.52,-317.38
19/7/2026,16:36:17,1012.21,-5.62,-285.16,1051.62,1022.19,732.42,-439.45,561.52
19/7/2026,16:36:17,1030.76,-0.73,-336.18,1084.2,2725.67,927.73,244.14,-2551.27
19/7/2026,16:36:17,995.85,-0.98,-303.47,1041.06,2392.27,-1745.61,-12.21,1635.74
19/7/2026,16:36:17,960.21,2.93,-274.41,998.65,2307.51,-1782.22,195.31,1452.64
19/7/2026,16:36:17,935.79,10.99,-263.92,972.36,1388.49,-1220.7,402.83,524.9
19/7/2026,16:36:17,950.2,-10.99,-302,997.09,2313.45,720.22,-1098.63,-1904.3
19/7/2026,16:36:17,952.64,-26.12,-317.63,1004.53,1094.56,122.07,-756.84,-781.25
19/7/2026,16:36:17,917.72,-20.26,-283.94,960.86,2443.51,-1745.61,292.97,1684.57
19/7/2026,16:36:17,895.75,-12.21,-195.56,916.93,4571.25,-1098.64,402.83,4418.95
19/7/2026,16:36:17,942.38,-25.88,-193.36,962.36,2432.17,2331.54,-683.59,109.86
19/7/2026,16:36:17,1028.08,-30.27,-287.6,1067.97,6372.5,4284.67,-219.73,-4711.91
19/7/2026,16:36:17,1081.79,-16.11,-309.08,1125.19,2977.82,2685.55,708.01,-1074.22
19/7/2026,16:36:17,1037.11,22.95,-251.95,1067.52,4118.77,-2233.89,1953.13,2856.45
19/7/2026,16:36:17,1004.15,75.68,-286.62,1046.99,3559.87,-1647.95,2636.72,-1733.4
19/7/2026,16:36:17,956.3,89.6,-280.27,1000.54,2511.83,-2392.58,695.8,317.38
19/7/2026,16:36:17,927.98,77.15,-272.95,970.36,1589.59,-1416.02,-622.56,366.21
19/7/2026,16:36:17,938.23,23.93,-290.53,982.48,2849.03,512.7,-2661.13,-878.91
19/7/2026,16:36:17,928.71,-22.22,-236.82,958.69,3572.35,-476.07,-2307.13,2685.55
19/7/2026,16:36:17,966.31,-46.63,-302,1013.48,3955.63,1879.89,-1220.7,-3259.28
19/7/2026,16:36:17,1007.57,-26.61,-403.32,1085.62,5560.7,2062.99,1000.98,-5065.92
19/7/2026,16:36:17,968.99,4.39,-375.98,1039.39,2827.11,-1928.71,1550.29,1367.19
19/7/2026,16:36:17,908.45,52.49,-312.01,961.97,5017.62,-3027.34,2404.78,3198.24
19/7/2026,16:36:17,856.2,70.56,-198,881.62,6335.45,-2612.31,903.32,5700.68
19/7/2026,16:36:17,930.42,41.99,-257.81,966.39,4975.47,3710.94,-1428.22,-2990.72
19/7/2026,16:36:17,1019.04,-14.16,-318.36,1067.71,6056.62,4431.15,-2807.62,-3027.34
19/7/2026,16:36:17,1064.45,-2.44,-364.01,1124.98,3272.51,2270.51,585.94,-2282.71
19/7/2026,16:36:17,1005.62,39.55,-333.98,1060.36,3913.76,-2941.89,2099.61,1501.46
19/7/2026,16:36:17,927.49,82.28,-261.47,967.15,5741.64,-3906.25,2136.23,3625.49
19/7/2026,16:36:17,903.08,89.11,-217.29,933.11,2547.29,-1220.7,341.8,2209.47
19/7/2026,16:36:17,972.66,37.11,-307.13,1020.67,6248.5,3479,-2600.1,-4492.19
19/7/2026,16:36:17,1006.1,12.94,-320.31,1055.94,2166.05,1672.36,-1208.5,-659.18
19/7/2026,16:36:17,1019.53,15.87,-363.77,1082.6,2278.93,671.39,146.48,-2172.85
19/7/2026,16:36:17,973.14,39.31,-333.5,1029.45,3007.29,-2319.34,1171.88,1513.67
19/7/2026,16:36:17,944.09,51.27,-339.6,1004.62,1600.33,-1452.64,598.14,-305.18
19/7/2026,16:36:18,899.66,54.93,-314.21,954.53,2565.37,-2221.68,183.11,1269.53
19/7/2026,16:36:18,871.58,62.01,-259.03,911.37,3115.59,-1403.81,354,2758.79
19/7/2026,16:36:18,920.9,39.06,-285.4,964.9,3022.42,2465.82,-1147.46,-1318.36
19/7/2026,16:36:18,974.85,27.59,-311.52,1023.79,3051.73,2697.75,-573.73,-1306.15
19/7/2026,16:36:18,1028.56,31.98,-373.05,1094.59,4089.41,2685.55,219.73,-3076.17
19/7/2026,16:36:18,1047.61,44.43,-405.03,1124.06,1962.49,952.15,622.56,-1599.12
19/7/2026,16:36:18,980.96,90.82,-340.09,1042.2,5198.89,-3332.52,2319.34,3247.07
19/7/2026,16:36:18,936.28,80.57,-317.38,991.89,2557.72,-2233.89,-512.7,1135.25
19/7/2026,16:36:18,923.34,83.01,-297.85,973.74,1177.77,-646.97,122.07,976.56
19/7/2026,16:36:18,947.27,50.78,-326.66,1003.29,2470.29,1196.29,-1611.33,-1440.43
19/7/2026,16:36:18,962.65,31.49,-343.02,1022.42,1479.98,769.05,-964.36,-817.87
19/7/2026,16:36:18,953.86,29.05,-342.77,1013.99,456.26,-439.45,-122.07,12.21
19/7/2026,16:36:18,950.93,36.87,-367.68,1020.2,1313.15,-146.48,390.62,-1245.12
19/7/2026,16:36:18,931.64,55.18,-347.66,995.92,1664.37,-964.36,915.53,1000.98
19/7/2026,16:36:18,913.57,52.98,-321.53,969.95,1591.88,-903.32,-109.86,1306.15
19/7/2026,16:36:18,935.3,61.04,-291.26,981.5,1906.25,1086.43,402.83,1513.67
19/7/2026,16:36:18,974.12,32.71,-362.3,1039.83,4288.44,1940.92,-1416.02,-3552.25
19/7/2026,16:36:18,976.81,43.95,-373.78,1046.8,813.94,134.28,561.52,-573.73
19/7/2026,16:36:18,948.24,74.71,-326.17,1005.55,3173.59,-1428.23,1538.09,2380.37
19/7/2026,16:36:18,945.31,69.82,-330.57,1003.88,359.64,-146.48,-244.14,-219.73
19/7/2026,16:36:18,940.92,78.12,-352.54,1007.83,1194.79,-219.73,415.04,-1098.63
19/7/2026,16:36:18,945.07,47.36,-355.96,1010.99,1561.4,207.52,-1538.09,-170.9
19/7/2026,16:36:18,947.51,33.69,-364.26,1015.67,808.99,122.07,-683.59,-415.04
19/7/2026,16:36:18,927.98,24.66,-336.67,987.47,1749.4,-976.56,-451.66,1379.39
19/7/2026,16:36:18,918.46,35.89,-308.35,969.5,1595.95,-476.07,561.52,1416.02
19/7/2026,16:36:18,955.32,49.07,-352.05,1019.31,2933.7,1843.26,659.18,-2185.06
19/7/2026,16:36:18,973.39,52.98,-369.38,1042.47,1267.01,903.32,195.31,-866.7
19/7/2026,16:36:18,974.85,56.88,-402.34,1056.15,1661.1,73.24,195.31,-1647.95
19/7/2026,16:36:18,955.57,53.47,-378.91,1029.34,1527.24,-964.35,-170.9,1171.88
19/7/2026,16:36:18,936.77,59.33,-364.26,1006.85,1227.1,-939.94,292.97,732.42
19/7/2026,16:36:18,917.48,61.77,-331.3,977.42,1913.27,-964.36,122.07,1647.95
19/7/2026,16:36:18,918.95,39.55,-326.42,976,1139.71,73.24,-1110.84,244.14
19/7/2026,16:36:18,945.31,36.13,-375,1017.62,2769.17,1318.36,-170.9,-2429.2
19/7/2026,16:36:18,935.3,31.49,-327.64,991.53,2431.56,-500.49,-231.93,2368.16
19/7/2026,16:36:18,937.74,34.42,-339.84,998.02,639.44,122.07,146.48,-610.35
19/7/2026,16:36:18,914.55,54.93,-298.58,963.62,2579.18,-1159.67,1025.39,2062.99
19/7/2026,16:36:18,934.81,58.35,-344.97,998.14,2536.74,1013.18,170.9,-2319.34
19/7/2026,16:36:18,989.5,62.74,-434.81,1082.64,5263.54,2734.37,219.73,-4492.19
19/7/2026,16:36:18,999.27,43.46,-464.84,1102.95,1850.08,488.28,-964.36,-1501.46
19/7/2026,16:36:18,955.08,44.92,-426.76,1047.05,2917.78,-2209.47,73.24,1904.3
19/7/2026,16:36:18,887.7,42.97,-358.4,958.28,4800.33,-3369.14,-97.66,3417.97
19/7/2026,16:36:18,846.68,49.07,-295.9,898.24,3750.26,-2050.78,305.18,3125
19/7/2026,16:36:18,883.79,36.62,-318.6,940.18,2262.56,1855.47,-622.56,-1135.25
19/7/2026,16:36:18,950.44,21.24,-385.25,1025.77,4775.23,3332.52,-769.04,-3332.52
19/7/2026,16:36:18,975.1,15.87,-388.67,1049.83,1273.34,1232.91,-268.55,-170.9
19/7/2026,16:36:18,949.95,35.16,-336.18,1008.3,3065.76,-1257.32,964.36,2624.51
19/7/2026,16:36:18,964.6,57.86,-399.17,1045.53,3426.96,732.42,1135.25,-3149.41
19/7/2026,16:36:18,958.25,74.22,-417.48,1047.88,1268,-317.38,817.87,-915.53
19/7/2026,16:36:18,940.67,78.86,-417.48,1032.17,908.99,-878.91,231.93,0
19/7/2026,16:36:18,896.97,64.21,-368.41,971.81,3366.18,-2185.06,-732.42,2453.61
19/7/2026,16:36:19,880.13,37.11,-315.67,935.76,3081.83,-842.29,-1354.98,2636.72
19/7/2026,16:36:19,958.5,6.35,-442.63,1055.78,7616.61,3918.46,-1538.09,-6347.66
19/7/2026,16:36:19,966.31,3.17,-450.68,1066.24,583.13,390.62,-158.69,-402.83
19/7/2026,16:36:19,928.47,20.75,-384.77,1005.25,3900.7,-1892.09,878.91,3295.9
19/7/2026,16:36:19,898.68,55.66,-414.55,991.25,2735.49,-1489.26,1745.61,-1489.26
19/7/2026,16:36:19,797.61,100.59,-297.12,857.07,8066,-5053.71,2246.09,5871.58
19/7/2026,16:36:19,646,92.04,-141.36,667.66,10876.66,-7580.57,-427.25,7788.09
19/7/2026,16:36:19,445.31,158.2,109.62,485.13,16404.31,-10034.18,3308.11,12548.83
19/7/2026,16:36:19,582.28,397.95,-848.14,1103.07,49838.44,6848.14,11987.3,-47888.18
19/7/2026,16:36:19,-137.94,208.01,287.6,380.8,67909.82,-36010.74,-9497.07,56787.11
19/7/2026,16:36:19,34.67,-48.58,371.83,376.59,16025.54,8630.37,-12829.59,4211.43
19/7/2026,16:36:19,185.79,-266.11,211.43,387.34,15482.69,7556.15,-10876.46,-8020.02
19/7/2026,16:36:19,207.76,-102.29,408.2,469.32,12849.18,1098.63,8190.92,9838.87
19/7/2026,16:36:19,149.41,20.75,425.05,451.02,6860.94,-2917.48,6152.34,842.29
19/7/2026,16:36:19,183.35,370.61,679.69,795.58,21701.96,1696.78,17492.68,12731.93
19/7/2026,16:36:19,106.69,804.44,682.86,1060.57,22028.51,-3833.01,21691.89,158.69
19/7/2026,16:36:19,153.08,1724.61,272.95,1752.77,50420.37,2319.34,46008.31,-20495.61
19/7/2026,16:36:19,462.4,1999.94,-708.98,2171.69,53284.2,15466.31,13766.47,-49096.68
19/7/2026,16:36:19,644.78,1999.94,-1387.21,2517.9,35115.73,9118.65,0,-33911.13
19/7/2026,16:36:19,635.25,1830.57,-1560.79,2488.09,12135.6,-476.07,-8468.62,-8679.2
19/7/2026,16:36:19,1999.94,444.34,-2000,2863.07,99710.9,68234.26,-69311.53,-21960.45
19/7/2026,16:36:19,-103.03,1999.94,-998.05,2237.51,140056.05,-105148.32,77780.16,50097.66
19/7/2026,16:36:19,-2000,-1268.55,1289.79,2696.81,220883.33,-94848.63,-163424.69,114392.09
19/7/2026,16:36:19,-1070.56,-128.91,-479.74,1180.19,115042.43,46472.17,56982.42,-88476.56
19/7/2026,16:36:19,-525.39,-314.45,-1325.68,1460.26,51167.87,27258.3,-9277.34,-42297.36
19/7/2026,16:36:19,-659.67,-428.22,-77.88,790.32,63007.65,-6713.87,-5688.48,62390.14
19/7/2026,16:36:19,124.76,-51.76,238.04,273.69,46283.11,39221.19,18823.24,15795.9
19/7/2026,16:36:19,1363.28,-1856.45,-1508.54,2753.29,140012.42,61926.27,-90234.38,-87329.1
19/7/2026,16:36:19,1098.88,-1250.98,-2000,2602.4,41171.29,-13220.21,30273.44,-24572.75
19/7/2026,16:36:19,-1199.95,373.29,356.2,1306.18,183538.42,-114941.41,81213.38,117810.06
19/7/2026,16:36:19,1999.94,1999.94,1999.94,3464,197402.86,159994.52,81332.4,82186.89
19/7/2026,16:36:19,90.09,1999.94,-1408.2,2447.63,195339.22,-95492.55,0,-170407.11
19/7/2026,16:36:19,-364.99,-1711.18,-1179.44,2110.08,187295.5,-22753.91,-185556.03,11437.99
19/7/2026,16:36:19,283.45,262.21,-173.83,423.45,115390.6,32421.88,98669.44,50280.76
19/7/2026,16:36:19,-710.45,820.31,1999.94,2275.39,122725.05,-49694.82,27905.27,108688.36
19/7/2026,16:36:19,-2000,1384.77,1842.77,3051.78,70821.07,-64477.54,28222.66,-7858.28
19/7/2026,16:36:19,-1829.35,1999.94,-596.92,2775.35,126092.07,8532.72,30758.67,-121984.87
19/7/2026,16:36:19,-1764.65,-277.1,-259.52,1805.03,115140.47,3234.86,-113851.93,16870.12
19/7/2026,16:36:19,-844.24,156.49,1957.03,2137.1,121945.33,46020.51,21679.69,110827.64
19/7/2026,16:36:19,289.31,-602.78,-190.19,695.14,127200.3,56677.25,-37963.87,-107360.84
19/7/2026,16:36:19,47.12,-496.83,1408.45,1494.25,81017.11,-12109.37,5297.85,79931.64
19/7/2026,16:36:19,198.97,-114.26,656.49,695.44,42861.76,7592.77,19128.42,-37597.66
19/7/2026,16:36:19,-259.77,280.52,908.94,986.07,32787.84,-22937.01,19738.77,12622.07
19/7/2026,16:36:19,-347.17,655.76,881.84,1152.47,19312.03,-4370.12,18762.21,-1354.98
19/7/2026,16:36:19,-321.53,858.15,735.6,1175.12,12550.51,1281.74,10119.63,-7312.01
19/7/2026,16:36:19,15.38,932.86,794.68,1225.55,17505.92,16845.7,3735.35,2954.1
19/7/2026,16:36:19,338.87,807.37,1051.27,1368.16,21577.19,16174.32,-6274.41,12829.59
19/7/2026,16:36:19,581.3,650.39,786.13,1174.27,19603.19,12121.58,-7849.12,-13256.84
19/7/2026,16:36:19,381.59,498.05,891.36,1090.04,13616.51,-9985.35,-7617.19,5261.23
19/7/2026,16:36:19,-94.24,461.67,889.16,1006.29,23861.18,-23791.5,-1818.85,-109.86
19/7/2026,16:36:20,-376.46,419.19,900.88,1062.56,14282.31,-14111.33,-2124.02,585.94
19/7/2026,16:36:20,-390.14,334.47,920.17,1053.94,4397.68,-683.59,-4235.84,964.36
19/7/2026,16:36:20,-182.13,232.42,914.06,960.57,11588.67,10400.39,-5102.54,-305.18
19/7/2026,16:36:20,34.91,223.63,906.74,934.56,10867.12,10852.05,-439.45,-366.21
19/7/2026,16:36:20,91.06,333.01,899.41,963.4,6158.25,2807.62,5468.75,-366.21
19/7/2026,16:36:20,-0.98,507.32,895.51,1029.23,9858.12,-4602.05,8715.82,-195.31
19/7/2026,16:36:20,-104.98,624.02,898.93,1099.32,7817.8,-5200.19,5834.96,170.9
19/7/2026,16:36:20,-110.11,632.57,891.6,1098.74,618.36,-256.35,427.25,-366.21
19/7/2026,16:36:20,-20.02,526.86,889.16,1033.72,6945.68,4504.39,-5285.64,-122.07
19/7/2026,16:36:20,25.15,417.97,890.38,983.92,5894.44,2258.3,-5444.34,61.03
19/7/2026,16:36:20,-14.65,374.02,906.74,980.96,3075.06,-1989.75,-2197.26,817.87
19/7/2026,16:36:20,-104.25,383.79,907.71,991.01,4506.77,-4479.98,488.28,48.83
19/7/2026,16:36:20,-146.48,417.72,919.19,1020.23,2769.11,-2111.82,1696.78,573.73
19/7/2026,16:36:20,-102.29,436.04,911.13,1015.26,2425.33,2209.47,915.53,-402.84
19/7/2026,16:36:20,-27.1,445.31,900.15,1004.64,3827.89,3759.77,463.87,-549.31
19/7/2026,16:36:20,-0.49,469.24,894.78,1010.35,1809.32,1330.57,1196.29,-268.56
19/7/2026,16:36:20,-31.98,497.8,900.88,1029.76,2147.71,-1574.71,1428.22,305.18
19/7/2026,16:36:20,-73.24,496.83,901.86,1032.25,2064.14,-2062.99,-48.83,48.83
19/7/2026,16:36:20,-74.71,475.34,902.34,1022.62,1076.99,-73.24,-1074.22,24.41
19/7/2026,16:36:20,-47.61,434.33,901.37,1001.68,2458.47,1354.98,-2050.78,-48.83
19/7/2026,16:36:20,-40.04,408.69,903.08,992.06,1339.16,378.42,-1281.74,85.45
19/7/2026,16:36:20,-57.86,411.87,903.56,994.69,905.46,-891.11,158.69,24.41
19/7/2026,16:36:20,-79.35,436.04,900.63,1003.78,1623.54,-1074.22,1208.5,-146.48
19/7/2026,16:36:20,-76.42,457.28,898.93,1011.44,1075.47,146.48,1062.01,-85.45
19/7/2026,16:36:20,-54.93,468.02,899.9,1015.82,1202,1074.22,537.11,48.83
19/7/2026,16:36:20,-41.99,475.83,901.12,1019.9,758.21,646.97,390.63,61.04
19/7/2026,16:36:20,-38.57,484.13,904.3,1026.46,476.07,170.9,415.04,158.69
19/7/2026,16:36:20,-48.34,484.38,896.24,1019.9,633.12,-488.28,12.21,-402.84
19/7/2026,16:36:20,-59.57,466.8,897.71,1013.57,1045.54,-561.52,-878.91,73.24
19/7/2026,16:36:20,-69.09,439.7,904.05,1007.68,1470.83,-476.07,-1354.98,317.39
19/7/2026,16:36:20,-67.87,434.57,904.54,1005.81,264.64,61.04,-256.35,24.41
19/7/2026,16:36:20,-62.5,440.92,907.23,1010.63,436.9,268.55,317.38,134.27
19/7/2026,16:36:20,-59.57,454.1,897.95,1008,819.24,146.48,659.18,-463.87
19/7/2026,16:36:20,-49.8,461.18,894.53,1007.65,626.85,488.28,354,-170.9
19/7/2026,16:36:20,-48.34,456.05,898.44,1008.72,330.49,73.24,-256.35,195.31
19/7/2026,16:36:20,-60.55,455.57,905.76,1015.68,712.2,-610.35,-24.41,366.21
19/7/2026,16:36:20,-66.89,442.87,901.86,1006.95,736.07,-317.38,-634.77,-195.31
19/7/2026,16:36:20,-69.58,427.98,906.01,1004.42,784.58,-134.28,-744.63,207.52
19/7/2026,16:36:20,-54.93,422.36,906.01,1001.13,784.39,732.42,-280.76,0
19/7/2026,16:36:20,-54.2,437.5,908.2,1009.54,765.65,36.62,756.84,109.86
19/7/2026,16:36:20,-65.67,459.96,906.25,1018.41,1264.89,-573.73,1123.05,-97.66
19/7/2026,16:36:20,-71.78,470.95,901.86,1019.94,665.7,-305.18,549.31,-219.73
19/7/2026,16:36:20,-63.23,467.04,910.16,1024.94,626.85,427.25,-195.31,415.04
19/7/2026,16:36:20,-51.76,450.2,908.69,1015.42,1021.75,573.73,-842.28,-73.24
19/7/2026,16:36:20,-53.96,441.65,902.34,1006.08,543.45,-109.86,-427.25,-317.38
19/7/2026,16:36:20,-67.38,440.43,910.64,1013.8,791.67,-671.39,-61.04,415.04
19/7/2026,16:36:20,-83.25,446.78,908.94,1016.22,858.84,-793.46,317.38,-85.45
19/7/2026,16:36:20,-74.95,457.52,911.87,1022.96,694.41,415.04,537.11,146.48
19/7/2026,16:36:20,-56.15,463.38,908.2,1021.13,1001.42,939.94,292.97,-183.11
19/7/2026,16:36:20,-43.21,462.89,899.66,1012.68,775.7,646.97,-24.41,-427.25
19/7/2026,16:36:21,-47.85,466.31,900.39,1015.1,290.41,-231.93,170.9,36.62
19/7/2026,16:36:21,-65.43,455.08,897.95,1008.81,1050.09,-878.91,-561.52,-122.07
19/7/2026,16:36:21,-73.97,432.13,899.9,1001.02,1228.31,-427.25,-1147.46,97.66
19/7/2026,16:36:21,-79.59,420.9,904.3,1000.62,665.15,-280.76,-561.53,219.73
19/7/2026,16:36:21,-75.44,430.42,910.16,1009.62,596.28,207.52,476.08,292.97
19/7/2026,16:36:21,-67.38,447.75,903.32,1010.45,1015.02,402.83,866.7,-341.8
19/7/2026,16:36:21,-62.99,466.06,895.75,1011.71,1014.73,219.73,915.53,-378.42
19/7/2026,16:36:21,-63.48,462.89,906.49,1019.82,560.6,-24.41,-158.69,537.12
19/7/2026,16:36:21,-69.58,452.88,903.56,1013.1,604.22,-305.18,-500.49,-146.48
19/7/2026,16:36:21,-64.94,439.21,911.38,1013.77,820.78,231.93,-683.59,390.62
19/7/2026,16:36:21,-70.8,442.63,904.54,1009.52,481.52,-292.97,170.9,-341.8
19/7/2026,16:36:21,-65.92,443.85,901.86,1007.32,285.24,244.14,61.04,-134.28
19/7/2026,16:36:21,-66.41,443.12,899.66,1005.06,118.35,-24.41,-36.62,-109.87
19/7/2026,16:36:21,-56.15,442.38,904.05,1008.05,559,512.7,-36.62,219.73
19/7/2026,16:36:21,-66.16,441.89,903.32,1007.79,502.42,-500.49,-24.41,-36.62
19/7/2026,16:36:21,-71.29,450.93,896.48,1006.03,621.72,-256.35,451.66,-341.8
19/7/2026,16:36:21,-78.12,448.24,903.56,1011.66,510.07,-341.8,-134.28,354.01
19/7/2026,16:36:21,-74.95,448.73,904.54,1012.51,167.82,158.69,24.41,48.83
19/7/2026,16:36:21,-65.43,442.38,909.91,1013.87,632.06,476.07,-317.38,268.55
19/7/2026,16:36:21,-65.19,439.7,905.03,1008.3,278.9,12.21,-134.28,-244.14
19/7/2026,16:36:21,-76.66,449.95,906.74,1015.14,774.16,-573.73,512.7,85.45
19/7/2026,16:36:21,-80.08,453.12,902.34,1012.9,320.42,-170.9,158.69,-219.73
19/7/2026,16:36:21,-65.19,450.44,902.34,1010.63,756.64,744.63,-134.28,0
19/7/2026,16:36:21,-68.36,443.12,904.54,1009.56,413.96,-158.69,-366.21,109.87
19/7/2026,16:36:21,-72.51,448,899.9,1007.86,395.55,-207.52,244.14,-231.94
19/7/2026,16:36:21,-75.93,449.95,918.46,1025.57,948.38,-170.9,97.66,927.73
19/7/2026,16:36:21,-70.56,457.03,900.15,1011.99,1017.66,268.55,354,-915.52
19/7/2026,16:36:21,-68.12,461.91,898.68,1012.74,282.61,122.07,244.14,-73.25
19/7/2026,16:36:21,-76.42,459.72,905.76,1018.62,556.46,-415.04,-109.86,354.01
19/7/2026,16:36:21,-71.53,454.83,908.94,1018.9,379.99,244.14,-244.14,158.69
19/7/2026,16:36:21,-62.5,448.49,900.88,1008.28,683.38,451.66,-317.38,-402.84
19/7/2026,16:36:21,-67.14,447.02,897.71,1005.09,290.42,-231.93,-73.24,-158.69
19/7/2026,16:36:21,-75.44,447.51,904.54,1012,538.22,-415.04,24.41,341.8
19/7/2026,16:36:21,-88.62,449.46,913.57,1022,805.01,-659.18,97.66,451.66
19/7/2026,16:36:21,-73.24,452.15,897.46,1007.59,1121.85,769.04,134.28,-805.66
19/7/2026,16:36:21,-63.96,452.15,908.2,1016.54,709.69,463.87,0,537.11
19/7/2026,16:36:21,-71.04,455.32,901.86,1012.77,501.23,-354,158.69,-317.38
19/7/2026,16:36:21,-75.44,453.37,903.56,1013.74,255.18,-219.73,-97.66,85.45
19/7/2026,16:36:21,-73.97,445.07,896.48,1003.61,550.4,73.24,-415.04,-354.01
19/7/2026,16:36:21,-65.43,434.08,908.45,1008.95,917.64,427.25,-549.31,598.15
19/7/2026,16:36:21,-73,435.79,903.56,1005.82,458.37,-378.42,85.45,-244.14
19/7/2026,16:36:21,-77.88,428.96,901.61,1001.48,431.24,-244.14,-341.8,-97.66
19/7/2026,16:36:21,-82.52,431.64,910.89,1011.36,535.72,-231.93,134.28,463.87
19/7/2026,16:36:21,-88.62,447.02,899.41,1008.28,1006.84,-305.18,769.04,-573.73
19/7/2026,16:36:21,-93.51,449.22,908.69,1017.97,535.58,-244.14,109.86,463.87
19/7/2026,16:36:21,-78.12,451.66,915.28,1023.64,845.55,769.04,122.07,329.59
19/7/2026,16:36:21,-70.07,445.56,898.19,1005.08,992.76,402.83,-305.18,-854.5
19/7/2026,16:36:21,-74.22,437.01,898.19,1001.62,474.98,-207.52,-427.25,0
19/7/2026,16:36:21,-85.94,426.27,905.76,1004.74,880.35,-585.94,-537.11,378.42
19/7/2026,16:36:21,-102.05,433.35,911.13,1014.09,920.07,-805.66,354,268.55
19/7/2026,16:36:22,-93.26,427.25,907.96,1007.78,558.06,439.45,-305.18,-158.69
19/7/2026,16:36:22,-79.1,426.76,907.96,1006.36,708.43,708.01,-24.41,0
19/7/2026,16:36:22,-76.66,428.96,910.64,1009.53,212.13,122.07,109.86,134.27
19/7/2026,16:36:22,-85.45,437.26,910.4,1013.57,604.59,-439.45,415.04,-12.2
19/7/2026,16:36:22,-89.6,448,905.27,1014.03,630.29,-207.52,537.11,-256.35
19/7/2026,16:36:22,-90.82,450.68,904.54,1014.67,151.98,-61.04,134.28,-36.62
19/7/2026,16:36:22,-84.72,442.63,901.86,1008.19,522.91,305.18,-402.83,-134.28
19/7/2026,16:36:22,-81.05,436.04,908.45,1010.93,500.79,183.11,-329.59,329.59
19/7/2026,16:36:22,-83.98,441.65,905.52,1010.98,348.92,-146.48,280.76,-146.48
19/7/2026,16:36:22,-86.67,439.21,903.81,1008.61,200.58,-134.28,-122.07,-85.45
19/7/2026,16:36:22,-88.38,436.52,910.16,1013.29,355.05,-85.45,-134.28,317.38
19/7/2026,16:36:22,-93.51,430.91,904.05,1005.85,487.51,-256.35,-280.76,-305.17
19/7/2026,16:36:22,-89.11,429.93,905.27,1006.13,233.21,219.73,-48.83,61.03
19/7/2026,16:36:22,-85.69,437.26,906.01,1009.64,405.78,170.9,366.21,36.62
19/7/2026,16:36:22,-86.43,442.63,904.3,1010.52,284.19,-36.62,268.55,-85.45
19/7/2026,16:36:22,-91.31,450.93,908.2,1018.09,519.62,-244.14,415.04,195.31
19/7/2026,16:36:22,-87.65,448.49,905.52,1014.29,257.8,183.11,-122.07,-134.27
19/7/2026,16:36:22,-83.74,443.36,914.79,1020.01,564.83,195.31,-256.35,463.87
19/7/2026,16:36:22,-86.67,432.62,910.16,1011.46,603.11,-146.48,-537.11,-231.94
19/7/2026,16:36:22,-92.29,434.33,906.98,1009.84,333.63,-280.76,85.45,-158.69
19/7/2026,16:36:22,-92.29,439.94,906.25,1011.61,283.14,0,280.76,-36.62
19/7/2026,16:36:22,-91.55,441.65,902.34,1008.79,216.31,36.62,85.45,-195.31
19/7/2026,16:36:22,-83.74,438.48,905.27,1009.35,446.35,390.62,-158.69,146.48
19/7/2026,16:36:22,-84.47,437.99,912.35,1015.56,356.73,-36.62,-24.41,354.01
19/7/2026,16:36:22,-89.36,444.82,909.91,1016.76,437.41,-244.14,341.8,-122.07
19/7/2026,16:36:22,-91.55,442.87,906.01,1012.6,244.45,-109.86,-97.66,-195.31
19/7/2026,16:36:22,-90.09,439.94,916.02,1020.17,526.6,73.24,-146.48,500.49
19/7/2026,16:36:22,-101.32,431.88,910.89,1013.17,737.08,-561.52,-402.83,-256.34
19/7/2026,16:36:22,-100.83,436.52,901.37,1006.57,530.13,24.41,231.93,-476.08
19/7/2026,16:36:22,-92.53,432.37,910.4,1012.1,647.55,415.04,-207.52,451.66
19/7/2026,16:36:22,-88.38,432.62,903.32,1005.46,410.53,207.52,12.21,-354.01
19/7/2026,16:36:22,-93.75,440.19,905.03,1010.76,471.83,-268.55,378.42,85.45
19/7/2026,16:36:22,-91.31,446.53,900.39,1009.17,411.62,122.07,317.38,-231.94
19/7/2026,16:36:22,-96.19,450.68,909.42,1019.52,553.78,-244.14,207.52,451.66
19/7/2026,16:36:22,-71.53,437.01,921.87,1022.72,1541.09,1232.91,-683.59,622.56
19/7/2026,16:36:22,-91.55,428.96,914.55,1014.29,1139.45,-1000.98,-402.83,-366.21
19/7/2026,16:36:22,-106.45,433.35,903.81,1007.96,944.05,-744.63,219.73,-537.11
19/7/2026,16:36:22,-101.81,430.66,901.37,1004.14,294.49,231.93,-134.28,-122.07
19/7/2026,16:36:22,-99.12,428.22,907.71,1008.54,365.6,134.28,-122.07,317.38
19/7/2026,16:36:22,-88.62,428.22,905.27,1005.36,538.91,524.9,0,-122.07
19/7/2026,16:36:22,-85.21,432.13,904.79,1006.3,260.67,170.9,195.31,-24.41
19/7/2026,16:36:22,-95.46,437.74,899.66,1005.05,638.28,-512.7,280.76,-256.35
19/7/2026,16:36:22,-105.22,444.58,904.54,1013.37,644.09,-488.28,341.8,244.15
19/7/2026,16:36:22,-101.81,436.28,906.74,1011.37,462.1,170.9,-415.04,109.86
19/7/2026,16:36:22,-92.53,429.93,912.6,1013.03,633.83,463.87,-317.38,292.97
19/7/2026,16:36:22,-93.26,428.71,902.1,1003.13,529.7,-36.62,-61.04,-524.9
19/7/2026,16:36:22,-101.56,430.42,906.98,1009.06,489.04,-415.04,85.45,244.14
19/7/2026,16:36:22,-103.27,435.55,904.54,1009.24,296.51,-85.45,256.35,-122.07
19/7/2026,16:36:22,-104.25,435.55,902.83,1007.81,98.42,-48.83,0,-85.45
19/7/2026,16:36:22,-91.06,444.58,907.96,1015.05,839.18,659.18,451.66,256.35
19/7/2026,16:36:23,-94.97,441.16,907.71,1013.7,259.81,-195.31,-170.9,-12.21
19/7/2026,16:36:23,-94.73,446.53,909.42,1017.55,282.09,12.21,268.55,85.45
19/7/2026,16:36:23,-97.66,443.12,909.67,1016.55,225.42,-146.48,-170.9,12.2
19/7/2026,16:36:23,-97.17,436.52,899.41,1004.46,609.99,24.41,-329.59,-512.7
19/7/2026,16:36:23,-95.7,427.25,905.03,1005.37,547.14,73.24,-463.87,280.76
19/7/2026,16:36:23,-97.9,425.78,903.32,1003.42,157.28,-109.86,-73.24,-85.45
19/7/2026,16:36:23,-102.29,433.84,908.45,1011.91,525.61,-219.73,402.83,256.35
19/7/2026,16:36:23,-101.56,440.43,908.69,1014.9,331.84,36.62,329.59,12.2
19/7/2026,16:36:23,-92.53,445.8,906.49,1014.41,536.83,451.66,268.55,-109.86
19/7/2026,16:36:23,-87.65,447.27,903.08,1011.57,306.88,244.14,73.24,-170.9
19/7/2026,16:36:23,-92.29,445.31,901.37,1009.6,265.77,-231.93,-97.66,-85.45
19/7/2026,16:36:23,-99.37,435.3,904.3,1008.52,630.29,-354,-500.49,146.48
19/7/2026,16:36:23,-102.78,435.06,916.5,1019.72,633.94,-170.9,-12.21,610.35
19/7/2026,16:36:23,-102.05,433.11,906.74,1010.03,499.3,36.62,-97.65,-488.28
19/7/2026,16:36:23,-96.92,434.57,911.87,1014.76,369.86,256.35,73.24,256.35
19/7/2026,16:36:23,-88.62,441.65,905.52,1011.37,631.12,415.04,354,-317.38
19/7/2026,16:36:23,-87.16,440.67,902.59,1008.19,170.9,73.24,-48.83,-146.48
19/7/2026,16:36:23,-95.95,437.01,904.79,1009.37,488.59,-439.45,-183.11,109.86
19/7/2026,16:36:23,-107.67,441.41,906.01,1013.55,628.75,-585.94,219.73,61.04
19/7/2026,16:36:23,-108.15,434.57,910.64,1014.8,413.78,-24.41,-341.8,231.93
19/7/2026,16:36:23,-98.63,436.04,909.42,1013.36,485.53,476.07,73.24,-61.03
19/7/2026,16:36:23,-87.4,440.92,908.2,1013.35,615.34,561.52,244.14,-61.04
19/7/2026,16:36:23,-86.91,442.38,912.6,1017.89,232.9,24.41,73.24,219.73
19/7/2026,16:36:23,-100.34,441.65,905.03,1012.03,771.56,-671.39,-36.62,-378.41
19/7/2026,16:36:23,-103.27,438.72,904.05,1010.17,212.84,-146.48,-146.48,-48.83
19/7/2026,16:36:23,-98.88,430.42,898.93,1001.55,535.02,219.73,-415.04,-256.35
19/7/2026,16:36:23,-98.88,429.69,909.18,1010.45,514,0,-36.62,512.7
19/7/2026,16:36:23,-101.56,438.48,904.05,1009.9,526.18,-134.28,439.45,-256.34
19/7/2026,16:36:23,-96.92,448.49,907.71,1017.09,581.21,231.93,500.49,183.1
19/7/2026,16:36:23,-90.58,450.2,900.15,1010.52,501.23,317.38,85.45,-378.41
19/7/2026,16:36:23,-85.45,447.51,904.79,1013.02,370.86,256.35,-134.28,231.93
19/7/2026,16:36:23,-98.88,434.08,904.3,1007.95,949.8,-671.39,-671.39,-24.41
19/7/2026,16:36:23,-100.1,427.73,907.47,1008.21,360.06,-61.04,-317.38,158.69
19/7/2026,16:36:23,-102.78,426.76,899.41,1000.82,427.42,-134.28,-48.83,-402.84
19/7/2026,16:36:23,-106.93,435.3,905.52,1010.39,564.57,-207.52,427.24,305.18
19/7/2026,16:36:23,-98.63,443.36,906.74,1014.14,581.6,415.04,402.83,61.03
19/7/2026,16:36:23,-90.33,458.98,897.46,1012.06,998.89,415.04,781.25,-463.87
19/7/2026,16:36:23,-81.3,459.72,900.88,1014.66,484.3,451.66,36.62,170.9
19/7/2026,16:36:23,-90.33,442.38,896.24,1003.55,1004.47,-451.66,-866.7,-231.94
19/7/2026,16:36:23,-100.83,432.37,901.37,1004.78,769.24,-524.9,-500.49,256.35
19/7/2026,16:36:23,-110.6,427.49,909.91,1011.39,693.23,-488.28,-244.14,427.25
19/7/2026,16:36:23,-110.6,431.88,909.91,1013.26,219.73,0,219.73,0
19/7/2026,16:36:23,-98.63,441.41,904.54,1011.32,810.27,598.14,476.07,-268.55
19/7/2026,16:36:23,-84.47,443.6,912.11,1017.77,810.27,708.01,109.86,378.41
19/7/2026,16:36:23,-80.32,449.22,904.54,1013.14,514.87,207.52,280.76,-378.41
19/7/2026,16:36:23,-87.65,448.49,913.57,1021.49,582.62,-366.21,-36.62,451.66
19/7/2026,16:36:23,-101.56,441.41,898.68,1006.37,1078.86,-695.8,-354,-744.63
19/7/2026,16:36:23,-110.84,429.93,907.23,1010.04,852.57,-463.87,-573.73,427.25
19/7/2026,16:36:23,-106.69,422.12,907.71,1006.73,443,207.52,-390.63,24.41
19/7/2026,16:36:23,-95.21,428.22,899.66,1000.91,764.58,573.73,305.18,-402.84
19/7/2026,16:36:24,-94.48,449.46,908.2,1017.73,1145.32,36.62,1062.01,427.25
19/7/2026,16:36:24,-84.72,464.36,903.56,1019.43,920.15,488.28,744.63,-231.93
19/7/2026,16:36:24,-93.02,456.05,907.23,1019.66,614.85,-415.04,-415.04,183.1
19/7/2026,16:57:38,543.46,-732.67,346.44,975.79,1589.49,-1159.67,-36.62,-1086.43
19/7/2026,16:57:38,528.32,-748.05,385.25,993.54,2220.67,-756.84,-769.04,1940.92
19/7/2026,16:57:38,566.65,-795.9,352.29,1038.58,3480.4,1916.5,-2392.58,-1647.95
19/7/2026,16:57:38,573.49,-813.48,338.38,1051.25,1171.94,341.8,-878.91,-695.8
19/7/2026,16:57:38,560.06,-791.99,354,1032.59,1488.31,-671.39,1074.22,781.25
19/7/2026,16:57:38,529.3,-760.74,391.85,1006.19,2896.05,-1538.09,1562.5,1892.09
19/7/2026,16:57:38,539.31,-747.56,362.55,990.52,1682.49,500.49,659.18,-1464.84
19/7/2026,16:57:39,548.34,-745.61,353.03,990.57,663.46,451.66,97.66,-476.07
19/7/2026,16:57:39,562.01,-742.92,358.89,998.29,755.75,683.59,134.28,292.97
19/7/2026,16:57:39,562.99,-757.57,387.94,1020.47,1627.57,48.83,-732.42,1452.64
19/7/2026,16:57:39,582.52,-776.37,392.82,1047.08,1377.23,976.56,-939.94,244.14
19/7/2026,16:57:39,599.37,-772.46,356.69,1040.75,2002.88,842.29,195.31,-1806.64
19/7/2026,16:57:39,563.23,-743.9,403.32,1016.5,3277.17,-1806.64,1428.22,2331.54
19/7/2026,16:57:39,579.1,-730.71,358.15,998.79,2482.74,793.46,659.18,-2258.3
19/7/2026,16:57:39,598.14,-740.23,330.81,1007.55,1732.75,952.15,-476.07,-1367.19
19/7/2026,16:57:39,586.43,-738.53,337.89,1001.74,689.89,-585.94,85.45,354
19/7/2026,16:57:39,566.41,-741.94,371.58,1004.67,1966.96,-1000.98,-170.9,1684.57
19/7/2026,16:57:39,561.04,-750.98,349.12,1000.31,1239.9,-268.55,-451.66,-1123.05
19/7/2026,16:57:39,543.95,-744.38,396.97,1003.78,2561.88,-854.49,329.59,2392.58
19/7/2026,16:57:39,568.36,-756.1,363.53,1013.35,2151.8,1220.7,-585.94,-1672.36
19/7/2026,16:57:39,609.86,-765.87,319.82,1029.94,3052.76,2075.2,-488.28,-2185.06
19/7/2026,16:57:39,592.04,-740.72,359.13,1013.98,2497.49,-891.11,1257.32,1965.33
19/7/2026,16:57:39,586.91,-718.51,369.87,998.76,1260.22,-256.35,1110.84,537.11
19/7/2026,16:57:39,605.22,-716.31,346.19,999.62,1500.77,915.53,109.86,-1184.08
19/7/2026,16:57:39,626.22,-730.71,305.91,1009.79,2382.78,1049.8,-720.21,-2014.16
19/7/2026,16:57:39,602.29,-707.52,338.87,989.03,2343.43,-1196.29,1159.67,1647.95
19/7/2026,16:57:39,593.99,-708.01,326.42,980.13,748.62,-415.04,-24.41,-622.56
19/7/2026,16:57:39,593.99,-704.59,359.37,989.15,1656.79,0,170.9,1647.95
19/7/2026,16:57:39,622.56,-727.05,299.56,1002.95,3499.35,1428.22,-1123.05,-2990.72
19/7/2026,16:57:39,590.33,-710.94,367.19,994.36,3831.32,-1611.33,805.66,3381.35
19/7/2026,16:57:39,595.21,-685.3,389.16,987.61,1705.71,244.14,1281.74,1098.63
19/7/2026,16:57:39,676.51,-708.25,375.49,1048.94,4278.75,4064.94,-1147.46,-683.59
19/7/2026,16:57:39,750,-696.29,324.46,1073.59,4513.02,3674.32,598.14,-2551.27
19/7/2026,16:57:39,720.95,-623.29,348.63,1014.79,4110.04,-1452.64,3649.9,1208.5
19/7/2026,16:57:39,667.72,-552.73,457.28,980.04,7002.52,-2661.13,3527.83,5432.13
19/7/2026,16:57:39,760.5,-567.38,384.28,1023.69,5947.73,4638.67,-732.42,-3649.9
19/7/2026,16:57:39,819.09,-625.24,330.08,1082.03,4929.18,2929.69,-2893.07,-2709.96
19/7/2026,16:57:39,794.19,-607.91,404.79,1078.95,4031.67,-1245.12,866.7,3735.35
19/7/2026,16:57:39,812.5,-636.23,345.46,1088.25,3412.08,915.53,-1416.02,-2966.31
19/7/2026,16:57:39,768.07,-607.18,314.7,1028.41,3067.85,-2221.68,1452.64,-1538.09
19/7/2026,16:57:39,660.16,-546.39,431.64,959.51,8517.03,-5395.51,3039.55,5847.17
19/7/2026,16:57:39,716.8,-601.56,335.21,994,6235.45,2832.03,-2758.79,-4821.78
19/7/2026,16:57:39,760.01,-662.84,279.54,1046.48,4669.31,2160.64,-3063.96,-2783.2
19/7/2026,16:57:39,708.98,-629.39,385.99,1023.61,6134.52,-2551.27,1672.36,5322.27
19/7/2026,16:57:39,728.27,-649.9,312.99,1025.04,3911.93,964.36,-1025.39,-3649.9
19/7/2026,16:57:39,697.02,-617.92,363.77,1000,3383.11,-1562.5,1599.12,2539.06
19/7/2026,16:57:39,709.72,-604.74,351.07,996.32,1113.72,634.77,659.18,-634.77
19/7/2026,16:57:39,737.06,-612.3,355.22,1021.94,1433.69,1367.19,-378.42,207.52
19/7/2026,16:57:39,752.93,-596.19,306.64,1008.15,2679.49,793.46,805.66,-2429.2
19/7/2026,16:57:39,713.87,-554.69,388.67,984.05,4994.39,-1953.13,2075.2,4101.56
19/7/2026,16:57:39,763.92,-562.5,359.62,1014.54,2919.75,2502.44,-390.62,-1452.64
19/7/2026,16:57:39,827.15,-604.98,330.32,1076.7,4080.82,3161.62,-2124.02,-1464.84
19/7/2026,16:57:39,848.39,-601.56,305.42,1083.94,1645.42,1062.01,170.9,-1245.12
19/7/2026,16:57:39,800.54,-538.33,304.2,1011.53,3965.35,-2392.58,3161.62,-61.04
19/7/2026,16:57:39,740.72,-511.72,350.34,966.06,4004.71,-2990.72,1330.57,2307.13
19/7/2026,16:57:39,764.16,-557.37,366.7,1014.43,2693.14,1171.88,-2282.71,817.87
19/7/2026,16:57:39,809.57,-606.69,326.9,1063.18,3898.02,2270.51,-2465.82,-1989.75
19/7/2026,16:57:40,819.58,-587.16,291.99,1049.63,2061.87,500.49,976.56,-1745.61
19/7/2026,16:57:40,750.73,-557.62,294.92,980.57,3748.75,-3442.38,1477.05,146.48
19/7/2026,16:57:40,727.78,-542.24,311.77,959.63,1617.88,-1147.46,769.04,842.29
19/7/2026,16:57:40,775.15,-573.24,270.02,1001.18,3516.94,2368.16,-1550.29,-2087.4
19/7/2026,16:57:40,755.13,-580.08,369.87,1021.53,5103.49,-1000.98,-341.8,4992.68
19/7/2026,16:57:40,793.7,-598.63,331.54,1047.97,2872.91,1928.71,-927.73,-1916.5
19/7/2026,16:57:40,814.7,-577.39,321.78,1049.12,1571.11,1049.8,1062.01,-488.28
19/7/2026,16:57:40,815.43,-566.89,320.56,1043.58,529.71,36.62,524.9,-61.04
19/7/2026,16:57:40,780.03,-543.7,323.24,1004.26,2120.34,-1770.02,1159.67,134.28
19/7/2026,16:57:40,727.05,-505.13,362.06,956.47,3808.4,-2648.93,1928.71,1940.92
19/7/2026,16:57:40,744.14,-519.29,340.09,969.05,1561.55,854.49,-708.01,-1098.63
19/7/2026,16:57:40,784.18,-550.78,308.35,1006.67,3000.97,2001.95,-1574.71,-1586.91
19/7/2026,16:57:40,806.88,-572.02,335.69,1044.49,2070.23,1135.25,-1062.01,1367.19
19/7/2026,16:57:40,856.45,-601.56,270.02,1080.87,4370.92,2478.03,-1477.05,-3283.69
19/7/2026,16:57:40,821.29,-565.92,307.62,1043.75,3130.53,-1757.82,1782.23,1879.88
19/7/2026,16:57:40,776.37,-528.81,345.7,1000.95,3480.52,-2246.09,1855.47,1904.3
19/7/2026,16:57:40,770.75,-516.11,373.05,999.8,1533.28,-280.76,634.77,1367.19
19/7/2026,16:57:40,818.36,-529.3,320.07,1025.82,3621.81,2380.37,-659.18,-2648.93
19/7/2026,16:57:40,799.56,-505.62,342.29,1006.03,1876.03,-939.94,1184.08,1110.84
19/7/2026,16:57:40,794.92,-495.36,395.75,1016.81,2731.92,-231.93,512.7,2673.34
19/7/2026,16:57:40,880.13,-538.09,301.27,1074.67,6710.48,4260.25,-2136.23,-4724.12
19/7/2026,16:57:40,900.15,-574.46,250.24,1096.77,3289.25,1000.98,-1818.85,-2551.27
19/7/2026,16:57:40,789.06,-508.54,362.55,1006.32,8558.21,-5554.2,3295.9,5615.23
19/7/2026,16:57:40,778.32,-520.75,260.74,972.09,5154.85,-537.11,-610.35,-5090.33
19/7/2026,16:57:40,729.25,-520.26,334.72,956.3,4438.63,-2453.61,24.41,3698.73
19/7/2026,16:57:40,759.77,-560.55,263.67,980.3,4359.31,1525.88,-2014.16,-3552.25
19/7/2026,16:57:40,744.63,-559.08,312.26,982.11,2545.42,-756.84,73.24,2429.2
19/7/2026,16:57:40,753.91,-569.82,359.62,1011.14,2472.22,463.87,-537.11,2368.16
19/7/2026,16:57:40,833.01,-581.54,290.04,1056.51,5299.94,3955.08,-585.94,-3479
19/7/2026,16:57:40,827.15,-543.21,355.47,1051.48,3802.82,-292.97,1916.5,3271.48
19/7/2026,16:57:40,829.1,-491.46,360.6,1029.06,2602.39,97.66,2587.89,256.35
19/7/2026,16:57:40,851.32,-465.09,336.91,1026.92,2091.43,1110.84,1318.36,-1184.08
19/7/2026,16:57:40,861.57,-443.36,302.73,1015.15,2088.97,512.7,1086.43,-1708.98
19/7/2026,16:57:40,818.6,-421.63,329.35,977.93,2750.73,-2148.43,1086.43,1330.57
19/7/2026,16:57:40,816.65,-445.31,351.32,994.31,1618.2,-97.66,-1184.08,1098.63
19/7/2026,16:57:40,899.41,-503.42,222.17,1054.39,8201.51,4138.18,-2905.27,-6457.52
19/7/2026,16:57:40,881.35,-512.94,257.08,1051.65,2022.32,-903.32,-476.07,1745.61
19/7/2026,16:57:40,836.43,-493.9,303.71,1017.73,3374.56,-2246.1,952.15,2331.54
19/7/2026,16:57:40,828.86,-497.07,280.27,1006.3,1241.64,-378.41,-158.69,-1171.88
19/7/2026,16:57:40,811.77,-462.89,329.35,990.81,3109.82,-854.49,1708.98,2453.61
19/7/2026,16:57:40,835.69,-469.73,299.32,1004.3,1949.96,1196.29,-341.8,-1501.46
19/7/2026,16:57:40,861.57,-473.88,303.71,1029.13,1328.77,1293.95,-207.52,219.73
19/7/2026,16:57:40,862.06,-468.75,328.61,1034.82,1271.47,24.41,256.35,1245.12
19/7/2026,16:57:40,883.3,-472.66,268.55,1037.18,3191.18,1062.01,-195.31,-3002.93
19/7/2026,16:57:40,860.35,-448.73,327.15,1024.01,3366.13,-1147.46,1196.29,2929.69
19/7/2026,16:57:40,857.67,-455.57,313.23,1020.41,786.76,-134.28,-341.8,-695.8
19/7/2026,16:57:40,859.86,-449.95,263.92,1005.72,2484.18,109.87,280.76,-2465.82
19/7/2026,16:57:40,816.41,-442.14,303.71,976.86,2972.03,-2172.85,390.62,1989.75
19/7/2026,16:57:40,802.25,-460.69,397.95,1007.08,4854.29,-708.01,-927.73,4711.91
19/7/2026,16:57:40,890.14,-499.76,300.54,1064.15,6844.66,4394.53,-1953.13,-4870.61
19/7/2026,16:57:41,889.89,-490.23,297.61,1058.68,498.25,-12.21,476.07,-146.48
19/7/2026,16:57:41,868.9,-436.28,277.34,1011.06,3067,-1049.8,2697.75,-1013.18
19/7/2026,16:57:41,852.05,-395.26,271,977.58,2239.61,-842.28,2050.78,-317.38
19/7/2026,16:57:41,860.84,-403.32,261.96,986.07,747.92,439.45,-402.83,-451.66
19/7/2026,16:57:41,875.24,-437.5,218.75,1002.65,2847.41,720.21,-1708.98,-2160.64
19/7/2026,16:57:41,806.64,-428.96,338.38,974.25,6908.42,-3430.18,427.24,5981.45
19/7/2026,16:57:41,820.8,-450.93,314.45,987.89,1771.83,708.01,-1098.63,-1196.29
19/7/2026,16:57:41,854,-469.73,289.06,1016.62,2291.58,1660.16,-939.94,-1269.53
19/7/2026,16:57:41,853.03,-455.08,311.52,1015.77,1341.66,-48.83,732.42,1123.05
19/7/2026,16:57:41,865.23,-434.33,299.56,1013.41,1344.21,610.35,1037.6,-598.14
19/7/2026,16:57:41,899.41,-409.91,260.74,1022.23,2859.7,1708.98,1220.7,-1940.92
19/7/2026,16:57:41,899.66,-385.5,270.75,1015.53,1319.38,12.2,1220.7,500.49
19/7/2026,16:57:41,914.55,-379.15,178.96,1006.07,4660.67,744.63,317.38,-4589.84
19/7/2026,16:57:41,841.8,-357.67,56.88,916.4,7186.08,-3637.7,1074.22,-6103.52
19/7/2026,16:57:41,580.32,-350.59,19.04,678.27,13214.68,-13073.73,354,-1892.09
19/7/2026,16:57:41,201.9,-360.84,-80.81,421.31,19575.24,-18920.9,-512.7,-4992.68
19/7/2026,16:57:41,-210.94,-236.08,-147.95,349.46,21823.72,-20642.09,6237.79,-3356.93
19/7/2026,16:57:41,-593.26,-196.53,-1.22,624.97,20570.93,-19116.21,1977.54,7336.43
19/7/2026,16:57:41,-391.11,-23.19,22.46,392.44,13367.08,10107.42,8666.99,1184.08
19/7/2026,16:57:41,157.96,-405.52,166.99,466.14,34225.04,27453.61,-19116.21,7226.56
19/7/2026,16:57:41,849.12,-283.45,-38.09,895.99,36560.33,34558.1,6103.52,-10253.91
19/7/2026,16:57:41,768.07,186.77,294.68,843.59,29086.23,-4052.73,23510.74,16638.18
19/7/2026,16:57:41,499.51,549.56,619.87,967.35,27816.02,-13427.73,18139.65,16259.77
19/7/2026,16:57:41,520.02,719.24,415.28,979.89,13329.3,1025.39,8483.89,-10229.49
19/7/2026,16:57:41,731.45,538.82,-60.79,910.51,27563.51,10571.29,-9021,-23803.71
19/7/2026,16:57:41,516.36,390.14,-93.02,653.82,13172.66,-10754.39,-7434.08,-1611.33
19/7/2026,16:57:41,152.83,398.93,73.73,433.52,20002.05,-18176.27,439.45,8337.4
19/7/2026,16:57:41,97.17,284.91,44.43,304.29,6510.74,-2783.2,-5700.68,-1464.84
19/7/2026,16:57:41,390.38,227.29,-355.71,574.97,24970.52,14660.64,-2880.86,-20007.32
19/7/2026,16:57:41,579.59,118.65,-633.06,866.47,17643.89,9460.45,-5432.13,-13867.19
19/7/2026,16:57:41,1677.98,1999.94,1999.94,3288.64,170868.11,54919.44,94064.34,131649.78
19/7/2026,16:57:41,1293.21,1999.94,53.47,2382.23,99206.84,-19238.29,0,-97323.61
19/7/2026,16:57:41,1036.38,432.62,-1273.19,1697.72,103470.88,-12841.8,-78366.09,-66333.01
19/7/2026,16:57:41,66.89,1999.94,-1020.02,2246.03,93011.98,-48474.12,78366.09,12658.69
19/7/2026,16:57:41,396.73,1813.96,-1194.34,2207.78,20842.45,16491.7,-9298.7,-8715.82
19/7/2026,16:57:41,-320.31,1395.26,-239.75,1451.5,63259.39,-35852.05,-20935.06,47729.49
19/7/2026,16:57:41,1999.94,-1144.53,-2000,3051.18,193213.75,116012.58,-126989.75,-88012.7
19/7/2026,16:57:41,-243.41,-2000,-2000,2838.88,120046.17,-112167.36,-42773.44,0
19/7/2026,16:57:41,-2000,-2000,-1174.32,3062.52,97048.55,-87829.59,0,41284.18
19/7/2026,16:57:41,-2000,-1267.58,-25.39,2367.99,68126.21,0,36621.09,57446.29
19/7/2026,16:57:41,-1929.69,-776.37,-681.88,2188.93,41146.59,3515.62,24560.55,-32824.71
19/7/2026,16:57:41,1376.71,-1153.32,-2000,2688.02,178967.73,165319.83,-18847.66,-65905.77
19/7/2026,16:57:41,-369.38,-2000,41.5,2034.25,140831.89,-87304.69,-42333.98,102075.2
19/7/2026,16:57:41,-451.42,-1674.32,-630.86,1845.29,37578.96,-4101.56,16284.18,-33618.16
19/7/2026,16:57:41,-1041.75,-1159.42,351.56,1597.84,62824.34,-29516.6,25744.63,49121.09
19/7/2026,16:57:41,210.21,-366.94,-508.79,661.59,85668.21,62597.66,39624.02,-43017.58
19/7/2026,16:57:41,1465.09,18.55,-1640.14,2199.29,86649.98,62744.14,19274.9,-56567.38
19/7/2026,16:57:41,1767.09,-620.85,-1317.14,2289.74,38870.64,15100.09,-31970.21,16149.9
19/7/2026,16:57:41,1135.01,-373.78,-200.44,1211.67,65337.32,-31604,12353.52,55834.96
19/7/2026,16:57:41,251.71,-260.99,788.33,867.72,66532.09,-44165.04,5639.65,49438.48
19/7/2026,16:57:42,81.54,-151.37,904.3,920.5,11664.17,-8508.3,5480.96,5798.34
19/7/2026,16:57:42,-1702.15,360.6,1999.94,2650.87,107750.79,-89184.58,25598.14,54782.11
19/7/2026,16:57:42,-1492.68,1727.54,-667.72,2378.72,150240.17,10473.64,68347.17,-133383.19
19/7/2026,16:57:42,-2000,-703.61,-2000,2914.63,140915.2,-25366.21,-121557.62,-66613.77
19/7/2026,16:57:42,-1034.18,-35.4,-1131.35,1533.21,73038.93,48291.02,33410.64,43432.62
19/7/2026,16:57:42,-116.94,141.11,-116.7,217.27,68956.34,45861.82,8825.68,50732.42
19/7/2026,16:57:42,357.18,-568.6,-348.39,756.48,44220.15,23706.05,-35485.84,-11584.47
19/7/2026,16:57:42,-3.66,-923.83,-71.53,926.6,28854.76,-18041.99,-17761.23,13842.77
19/7/2026,16:57:42,-2000,-2000,-21.97,2828.51,113423.63,-99816.9,-53808.59,2478.03
19/7/2026,16:57:42,-947.27,-744.38,579.35,1336.81,87269.74,52636.72,62780.76,30065.92
19/7/2026,16:57:42,-518.8,-127.44,-631.59,827.23,71249.08,21423.34,30847.17,-60546.87
19/7/2026,16:57:42,-963.38,445.56,-1019.29,1471.59,41118.3,-22229.01,28649.9,-19384.77
19/7/2026,16:57:42,-863.04,-322.27,-587.89,1092.84,44320.49,5017.09,-38391.11,21569.82
19/7/2026,16:57:42,-799.32,-349.37,-189.94,892.77,20196.43,3186.04,-1354.98,19897.46
19/7/2026,16:57:42,-875.49,-400.88,-360.84,1028.29,9703.36,-3808.59,-2575.68,-8544.92
19/7/2026,16:57:42,-889.4,-323.73,-437.74,1042.81,5490.86,-695.8,3857.42,-3845.21
19/7/2026,16:57:42,-835.69,-368.9,-327.15,970.31,6549.09,2685.54,-2258.3,5529.79
19/7/2026,16:57:42,-830.08,-356.2,-322.02,958.96,739.91,280.76,634.77,256.35
19/7/2026,16:57:42,-872.56,-351.81,-399.9,1022.28,4441.1,-2124.02,219.73,-3894.04
19/7/2026,16:57:42,-858.15,-345.95,-365.48,994.83,1888.66,720.21,292.97,1721.19
19/7/2026,16:57:42,-848.14,-354.25,-352.54,984.44,917.24,500.49,-415.04,646.97
19/7/2026,16:57:42,-855.96,-350.59,-359.13,992.24,542.91,-390.63,183.11,-329.59
19/7/2026,16:57:42,-851.07,-349.61,-359.62,987.87,250.17,244.14,48.83,-24.41
19/7/2026,16:57:42,-852.29,-351.07,-358.15,988.91,120.22,-61.03,-73.24,73.24
19/7/2026,16:57:42,-853.52,-348.39,-368.9,992.95,556.99,-61.04,134.28,-537.11
19/7/2026,16:57:42,-851.32,-345.7,-359.86,986.79,483.84,109.87,134.28,451.66
19/7/2026,16:57:42,-848.14,-348.14,-361.33,985.45,213.19,158.69,-122.07,-73.24
19/7/2026,16:57:42,-846.92,-346.68,-358.15,982.72,185.13,61.03,73.24,158.69
19/7/2026,16:57:42,-854.98,-350.1,-358.89,991.14,439.12,-402.84,-170.9,-36.62
19/7/2026,16:57:42,-851.81,-349.12,-356.69,987.26,199.09,158.69,48.83,109.86
19/7/2026,16:57:42,-848.88,-348.14,-352.78,982.98,248.98,146.48,48.83,195.31
19/7/2026,16:57:42,-851.56,-349.61,-352.78,985.82,152.96,-134.28,-73.24,0
19/7/2026,16:57:42,-852.54,-348.88,-362.3,989.85,479.97,-48.83,36.62,-476.07
19/7/2026,16:57:42,-853.03,-350.34,-356.45,988.66,302.97,-24.41,-73.24,292.97
