Date,Time,Accel_X,Accel_Y,Accel_Z,Acc_Magnitude,Jerk_Magnitude,Axial_x,Axial_y,Axial_z
19/7/2026,16:29:19,1033.69,-222.41,66.41,1059.43,714.5,-378.42,-598.15,97.66
19/7/2026,16:29:19,1020.75,-222.41,81.79,1047.9,1004.99,-646.97,0,769.04
19/7/2026,16:29:19,1077.39,-230.96,86.43,1105.25,2873.45,2832.03,-427.25,231.93
19/7/2026,16:29:19,1068.12,-236.82,121.34,1100.76,1829.79,-463.87,-292.97,1745.61
19/7/2026,16:29:19,1060.06,-227.05,105.96,1089.27,996.05,-402.83,488.28,-769.04
19/7/2026,16:29:19,1101.81,-208.98,118.41,1127.68,2358.14,2087.4,903.32,622.56
19/7/2026,16:29:20,1121.83,-217.04,84.47,1145.75,2010.79,1000.98,-402.83,-1696.78
19/7/2026,16:29:20,1026.12,-240.72,88.62,1057.7,4933.85,-4785.16,-1184.08,207.52
19/7/2026,16:29:20,1072.02,-251.22,95.7,1105.22,2380.65,2294.92,-524.9,354
19/7/2026,16:29:20,1026.61,-232.42,106.93,1058.01,2520.72,-2270.51,939.94,561.52
19/7/2026,16:29:20,1015.14,-267.33,108.4,1055.33,1838.93,-573.73,-1745.61,73.24
19/7/2026,16:29:20,1015.62,-269.78,116.94,1057.33,445.01,24.41,-122.07,427.25
19/7/2026,16:29:20,983.4,-281.25,128.91,1030.92,1811.99,-1611.33,-573.73,598.14
19/7/2026,16:29:20,989.99,-317.87,89.84,1043.64,2697.42,329.59,-1831.05,-1953.13
19/7/2026,16:29:20,1026.12,-313.72,105.22,1078.16,1974.45,1806.64,207.52,769.04
19/7/2026,16:29:20,997.8,-319.34,104.25,1052.83,1444.41,-1416.02,-280.76,-48.83
19/7/2026,16:29:20,1000,-320.8,102.78,1055.21,150.99,109.87,-73.24,-73.24
19/7/2026,16:29:20,1038.57,-318.12,81.79,1089.28,2200.01,1928.71,134.28,-1049.8
19/7/2026,16:29:20,978.76,-331.05,65.43,1035.3,3167.32,-2990.72,-646.97,-817.87
19/7/2026,16:29:20,959.47,-332.28,28.56,1015.78,2081.18,-964.35,-61.04,-1843.26
19/7/2026,16:29:20,974.12,-336.43,11.96,1030.65,1126.29,732.42,-207.52,-830.08
19/7/2026,16:29:20,905.52,-341.8,65.92,970.12,4372.19,-3430.17,-268.55,2697.75
19/7/2026,16:29:20,857.18,-350.1,86.18,929.92,2653.43,-2417,-415.04,1013.18
19/7/2026,16:29:20,850.83,-341.06,111.82,923.44,1395.56,-317.38,451.66,1281.74
19/7/2026,16:29:20,830.32,-341.8,118.65,905.73,1081.48,-1025.39,-36.62,341.8
19/7/2026,16:29:20,761.72,-341.55,134.52,845.56,3520.77,-3430.18,12.21,793.46
19/7/2026,16:29:20,813.96,-347.66,107.18,891.57,2964.2,2612.3,-305.18,-1367.19
19/7/2026,16:29:20,761.23,-354.74,102.54,846.06,2670.47,-2636.72,-354,-231.93
19/7/2026,16:29:20,758.06,-387.94,17.82,851.74,4552.32,-158.69,-1660.16,-4235.84
19/7/2026,16:29:20,784.18,-387.7,-28.32,875.24,2651.23,1306.15,12.21,-2307.13
19/7/2026,16:29:20,808.84,-363.53,-43.7,887.85,1889.96,1232.91,1208.5,-769.04
19/7/2026,16:29:20,772.46,-371.09,-49.32,858.39,1878.89,-1818.85,-378.42,-280.76
19/7/2026,16:29:20,816.89,-370.12,-73.97,899.88,2541.32,2221.68,48.83,-1232.91
19/7/2026,16:29:20,818.12,-359.86,-63.48,896.02,736.28,61.04,512.7,524.9
19/7/2026,16:29:20,822.51,-360.35,-36.62,898.73,1360.85,219.72,-24.41,1342.77
19/7/2026,16:29:20,818.12,-341.8,19.53,886.86,2965.08,-219.72,927.73,2807.62
19/7/2026,16:29:20,846.68,-308.59,20.75,901.4,2190.81,1428.22,1660.16,61.04
19/7/2026,16:29:20,879.64,-329.1,-53.47,940.71,4187.87,1647.95,-1025.39,-3710.94
19/7/2026,16:29:20,908.94,-345.7,-48.83,973.68,1699.59,1464.85,-830.08,231.93
19/7/2026,16:29:20,901.61,-345.21,-2.93,965.45,2324.09,-366.21,24.41,2294.92
19/7/2026,16:29:20,887.7,-317.38,53.71,944.26,3231.27,-695.8,1391.6,2832.03
19/7/2026,16:29:20,916.02,-308.84,-19.29,966.87,3938.2,1416.02,427.25,-3649.9
19/7/2026,16:29:20,1000.24,-308.11,-75.93,1049.37,5075.22,4211.43,36.62,-2832.03
19/7/2026,16:29:20,935.79,-301.03,-5.37,983.03,4791.29,-3222.66,354,3527.83
19/7/2026,16:29:20,981.93,-283.69,30.76,1022.56,3055.81,2307.13,866.7,1806.64
19/7/2026,16:29:20,1012.7,-272.22,3.42,1048.65,2136.37,1538.09,573.73,-1367.19
19/7/2026,16:29:20,1055.66,-273.19,-66.65,1092.48,4110,2148.44,-48.83,-3503.42
19/7/2026,16:29:20,1063.96,-283.2,-62.01,1102.76,690.32,415.04,-500.49,231.93
19/7/2026,16:29:20,1047.36,-287.84,12.7,1086.27,3833.49,-830.08,-231.93,3735.35
19/7/2026,16:29:20,1057.62,-274.66,-2.44,1092.7,1127.02,512.7,659.18,-756.84
19/7/2026,16:29:20,1133.79,-259.52,-36.62,1163.69,4242.5,3808.59,756.84,-1708.98
19/7/2026,16:29:20,1100.59,-281.01,-48.34,1136.92,2062.37,-1660.16,-1074.22,-585.94
19/7/2026,16:29:20,1103.27,-249.76,43.7,1132.03,4861.92,134.28,1562.5,4602.05
19/7/2026,16:29:20,1073.24,-259.28,60.3,1105.76,1780.47,-1501.46,-476.07,830.08
19/7/2026,16:29:20,1052.98,-238.53,25.39,1079.95,2269.42,-1013.18,1037.6,-1745.61
19/7/2026,16:29:20,1101.32,-249.51,-10.5,1129.28,3060,2416.99,-549.32,-1794.43
19/7/2026,16:29:21,1038.09,-245.36,10.25,1066.74,3333.99,-3161.62,207.52,1037.6
19/7/2026,16:29:21,992.19,-250.73,48.58,1024.53,3001.96,-2294.92,-268.55,1916.5
19/7/2026,16:29:21,1033.94,-229.98,55.66,1060.67,2357.79,2087.4,1037.6,354
19/7/2026,16:29:21,997.8,-253.17,36.62,1030.07,2348.48,-1806.64,-1159.67,-952.15
19/7/2026,16:29:21,953.86,-265.62,17.09,990.3,2483.79,-2197.26,-622.56,-976.56
19/7/2026,16:29:21,984.62,-256.84,6.1,1017.58,1691.32,1538.08,439.45,-549.32
19/7/2026,16:29:21,945.31,-262.7,34.42,981.74,2439.97,-1965.33,-292.97,1416.02
19/7/2026,16:29:21,959.23,-255.37,21.24,992.87,1026.05,695.8,366.21,-659.18
19/7/2026,16:29:21,964.6,-261.47,24.17,999.7,432.1,268.55,-305.18,146.48
19/7/2026,16:29:21,950.93,-241.7,48.83,982.38,1721.93,-683.59,988.77,1232.91
19/7/2026,16:29:21,931.15,-251.22,28.08,964.85,1510.27,-988.77,-476.07,-1037.6
19/7/2026,16:29:21,1051.27,-246.34,46.63,1080.75,6082,6005.86,244.14,927.73
19/7/2026,16:29:21,938.96,-250,54.69,973.21,5632.65,-5615.24,-183.11,402.83
19/7/2026,16:29:21,1011.23,-244.38,26.37,1040.68,3890.98,3613.28,280.76,-1416.02
19/7/2026,16:29:21,1026.61,-268.55,21.24,1061.37,1455.2,769.04,-1208.5,-256.35
19/7/2026,16:29:21,993.65,-250.98,56.64,1026.42,2573.17,-1647.95,878.91,1770.02
19/7/2026,16:29:21,986.33,-240.48,63.23,1017.19,719.9,-366.21,524.9,329.59
19/7/2026,16:29:21,1002.93,-225.59,71.04,1030.44,1181.56,830.08,744.63,390.62
19/7/2026,16:29:21,1016.11,-244.38,53.71,1046.47,1438.46,659.18,-939.94,-866.7
19/7/2026,16:29:21,996.34,-263.67,14.4,1030.74,2402.12,-988.77,-964.36,-1965.33
19/7/2026,16:29:21,1008.79,-249.51,25.15,1039.49,1085.06,622.56,708.01,537.11
19/7/2026,16:29:21,967.77,-267.33,57.86,1005.68,2770.46,-2050.78,-891.11,1635.74
19/7/2026,16:29:21,982.18,-261.23,41.75,1017.18,1122.91,720.21,305.18,-805.66
19/7/2026,16:29:21,1048.34,-236.57,12.45,1074.77,3822.23,3308.11,1232.91,-1464.84
19/7/2026,16:29:21,944.82,-246.09,49.8,977.62,5523.01,-5175.78,-476.07,1867.68
19/7/2026,16:29:21,976.81,-259.28,14.65,1010.74,2466.09,1599.12,-659.18,-1757.81
19/7/2026,16:29:21,920.17,-259.52,21.48,956.3,2852.61,-2832.03,-12.21,341.8
19/7/2026,16:29:21,1008.79,-250.49,66.16,1041.53,4982.91,4431.15,451.66,2233.89
19/7/2026,16:29:21,1004.39,-238.04,73.24,1034.81,749.12,-219.73,622.56,354
19/7/2026,16:29:21,1048.1,-234.86,40.04,1074.83,2748.78,2185.06,158.69,-1660.16
19/7/2026,16:29:21,937.26,-279.05,44.43,978.92,5970.24,-5541.99,-2209.47,219.73
19/7/2026,16:29:21,990.48,-257.08,43.46,1024.22,2879.41,2661.13,1098.63,-48.83
19/7/2026,16:29:21,990.72,-276.12,21.73,1028.71,1444.66,12.21,-952.15,-1086.43
19/7/2026,16:29:21,930.18,-293.7,7.08,975.47,3236.31,-3027.34,-878.91,-732.42
19/7/2026,16:29:21,1022.71,-275.39,-27.83,1059.5,5028.87,4626.46,915.53,-1745.61
19/7/2026,16:29:21,1007.81,-267.33,8.3,1042.7,1995.17,-744.63,402.83,1806.64
19/7/2026,16:29:21,948.49,-270.51,37.11,987,3301.36,-2966.31,-158.69,1440.43
19/7/2026,16:29:21,998.29,-272.95,20.75,1035.14,2623.94,2490.23,-122.07,-817.87
19/7/2026,16:29:21,1019.78,-276.61,17.33,1056.77,1103.04,1074.22,-183.11,-170.9
19/7/2026,16:29:21,1025.63,-277.1,10.99,1062.46,432.62,292.97,-24.41,-317.38
19/7/2026,16:29:21,1022.46,-259.77,32.23,1055.43,1379.93,-158.69,866.7,1062.01
19/7/2026,16:29:21,982.42,-273.68,51.03,1021.11,2318.5,-2001.95,-695.8,939.94
19/7/2026,16:29:21,1040.53,-267.82,64.45,1076.37,2996.2,2905.27,292.97,671.39
19/7/2026,16:29:21,1019.53,-282.47,50.29,1059.13,1462.81,-1049.8,-732.42,-708.01
19/7/2026,16:29:21,1027.34,-300.05,36.38,1070.88,1187.1,390.62,-878.91,-695.8
19/7/2026,16:29:21,1168.46,-222.17,11.23,1189.44,8156.4,7055.66,3894.04,-1257.32
19/7/2026,16:29:21,1062.5,-314.7,69.82,1110.32,7619.35,-5297.85,-4626.46,2929.69
19/7/2026,16:29:21,1050.05,-316.16,86.18,1099.99,1030.46,-622.56,-73.24,817.87
19/7/2026,16:29:21,1105.22,-333.74,16.36,1154.63,4535.63,2758.79,-878.91,-3491.21
19/7/2026,16:29:21,1097.9,-356.69,0.49,1154.39,1442.34,-366.21,-1147.46,-793.46
19/7/2026,16:29:22,1113.04,-374.76,-29.05,1174.79,1889.57,756.84,-903.32,-1477.05
19/7/2026,16:29:22,1106.2,-380.62,-35.16,1170.38,543.86,-341.8,-292.97,-305.18
19/7/2026,16:29:22,1055.66,-389.4,-55.42,1126.56,2757.65,-2526.86,-439.45,-1013.18
19/7/2026,16:29:22,1024.41,-434.08,-109.13,1117.93,3826.73,-1562.5,-2233.89,-2685.55
19/7/2026,16:29:22,1019.53,-406.74,-113.04,1103.48,1402.48,-244.14,1367.19,-195.31
19/7/2026,16:29:22,982.67,-433.35,-84.72,1077.31,2678.27,-1843.26,-1330.57,1416.02
19/7/2026,16:29:22,1013.43,-429.44,-42.97,1101.5,2600.21,1538.09,195.31,2087.4
19/7/2026,16:29:22,920.9,-418.21,-15.38,1011.53,4860.27,-4626.46,561.53,1379.39
19/7/2026,16:29:22,951.42,-411.13,-53.96,1037.85,2484.66,1525.88,354,-1928.71
19/7/2026,16:29:22,987.3,-428.22,-53.22,1077.49,1987.84,1794.43,-854.49,36.62
19/7/2026,16:29:22,924.32,-418.21,8.54,1014.56,4439.3,-3149.41,500.49,3088.38
19/7/2026,16:29:22,935.55,-396.73,10.5,1016.24,1216.05,561.52,1074.22,97.66
19/7/2026,16:29:22,998.29,-411.38,47.61,1080.78,3717.7,3137.21,-732.42,1855.47
19/7/2026,16:29:22,883.54,-433.84,48.83,985.52,5846.51,-5737.3,-1123.05,61.04
19/7/2026,16:29:22,925.29,-450.93,12.21,1029.39,2905.2,2087.41,-854.49,-1831.05
19/7/2026,16:29:22,872.31,-444.09,29.79,979.3,2811.78,-2648.93,341.8,878.91
19/7/2026,16:29:22,847.9,-474.37,14.65,971.69,2086.65,-1220.7,-1513.67,-756.84
19/7/2026,16:29:22,841.55,-481.45,54.93,971.09,2069.52,-317.38,-354.01,2014.16
19/7/2026,16:29:22,766.6,-466.31,61.77,899.41,3838.47,-3747.56,756.84,341.8
19/7/2026,16:29:22,762.45,-513.43,42.97,920.21,2545.01,-207.52,-2355.96,-939.94
19/7/2026,16:29:22,814.7,-503.66,62.74,959.87,2835.53,2612.3,488.28,988.77
19/7/2026,16:29:22,760.5,-508.3,-3.91,914.74,4301.55,-2709.96,-231.93,-3332.52
19/7/2026,16:29:22,772.46,-506.84,-34.91,924.55,1663.29,598.14,73.24,-1550.29
19/7/2026,16:29:22,750.24,-470.7,20.02,885.91,3470.11,-1110.84,1806.64,2746.58
19/7/2026,16:29:22,740.23,-497.56,44.92,893.05,1898.38,-500.49,-1342.78,1245.12
19/7/2026,16:29:22,654.79,-505.37,16.36,827.29,4521.76,-4272.46,-390.62,-1428.22
19/7/2026,16:29:22,656.74,-298.1,1.95,721.23,10389.22,97.66,10363.77,-720.21
19/7/2026,16:29:22,713.87,-529.79,-151.37,901.77,14181.93,2856.45,-11584.47,-7666.02
19/7/2026,16:29:22,636.72,-480.71,-174.8,816.73,4719.45,-3857.42,2453.61,-1171.88
19/7/2026,16:29:22,763.43,-437.5,-116.21,887.54,7306.8,6335.45,2160.65,2929.69
19/7/2026,16:29:22,565.19,-456.54,-177.25,747.85,10414.88,-9912.11,-952.15,-3051.76
19/7/2026,16:29:22,746.58,-447.02,-227.05,899.31,9417.52,9069.82,476.07,-2490.23
19/7/2026,16:29:22,698,-435.55,-208.01,848.63,2671.47,-2429.2,573.73,952.15
19/7/2026,16:29:22,617.92,-464.84,-190.43,796.35,4353.1,-4003.91,-1464.84,878.91
19/7/2026,16:29:22,692.38,-438.48,-138.92,831.24,4715.3,3723.14,1318.36,2575.68
19/7/2026,16:29:22,678.71,-438.48,-190.92,830.28,2688.46,-683.59,0,-2600.1
19/7/2026,16:29:22,656.74,-441.41,-258.54,832.46,3558.37,-1098.63,-146.48,-3381.35
19/7/2026,16:29:22,748.54,-422.85,-252.69,896.08,4691.82,4589.84,927.74,292.97
19/7/2026,16:29:22,798.83,-460.45,-167.72,937.16,5282.36,2514.65,-1879.88,4248.05
19/7/2026,16:29:22,708.74,-463.87,-167.97,863.54,4507.65,-4504.39,-170.9,-12.21
19/7/2026,16:29:22,745.85,-437.74,-269.78,905.92,5573.17,1855.47,1306.15,-5090.33
19/7/2026,16:29:22,902.1,-407.71,-345.7,1048.58,8814.88,7812.5,1501.46,-3796.39
19/7/2026,16:29:22,857.18,-398.19,-323.24,998.9,2555.94,-2246.1,476.07,1123.05
19/7/2026,16:29:22,847.66,-393.31,-239.75,964.72,4208.95,-476.08,244.14,4174.8
19/7/2026,16:29:22,828.37,-386.47,-257.81,949.75,1364.84,-964.35,341.8,-903.32
19/7/2026,16:29:22,897.71,-323.73,-281.49,994.94,4823.15,3466.79,3137.21,-1184.08
19/7/2026,16:29:22,905.03,-331.79,-291.99,1007.18,756.25,366.22,-402.83,-524.9
19/7/2026,16:29:22,869.14,-328.61,-173.83,945.31,6176.73,-1794.43,158.69,5908.2
19/7/2026,16:29:22,852.78,-289.06,-96.68,905.62,4411.27,-817.87,1977.54,3857.42
19/7/2026,16:29:22,879.64,-268.8,-190.92,939.4,5003.17,1342.77,1013.18,-4711.91
19/7/2026,16:29:23,953.61,-253.66,-249.76,1017.89,4786.25,3698.73,756.84,-2941.89
19/7/2026,16:29:23,999.51,-253.91,-230.71,1056.75,2484.63,2294.92,-12.21,952.15
19/7/2026,16:29:23,842.29,-262.45,-106.69,888.65,10021.86,-7861.33,-427.25,6201.17
19/7/2026,16:29:23,988.53,-212.65,-235.6,1038.22,10060.26,7312.01,2490.23,-6445.31
19/7/2026,16:29:23,1136.47,-196.78,-313.23,1195.16,8391.71,7397.46,793.46,-3881.84
19/7/2026,16:29:23,1133.54,-209.23,-311.52,1194.05,645.24,-146.48,-622.56,85.45
19/7/2026,16:29:23,1091.55,-200.93,-246.09,1136.85,3909.38,-2099.61,415.04,3271.48
19/7/2026,16:29:23,1177.25,-230.96,-192.38,1215.01,5274.94,4284.67,-1501.46,2685.55
19/7/2026,16:29:23,1169.68,-230.71,-202.39,1209.27,627.56,-378.42,12.21,-500.49
19/7/2026,16:29:23,1142.09,-277.59,-299.8,1212.97,5578.41,-1379.39,-2343.75,-4870.61
19/7/2026,16:29:23,1094.48,-295.17,-313.72,1176.2,2631.12,-2380.37,-878.91,-695.8
19/7/2026,16:29:23,1143.8,-312.01,-239.01,1209.44,4554.4,2465.82,-842.29,3735.35
19/7/2026,16:29:23,1180.42,-237.55,-180.66,1217.56,5072.11,1831.05,3723.14,2917.48
19/7/2026,16:29:23,1118.16,-225.59,-140.62,1149.33,3749.01,-3112.79,598.15,2001.95
19/7/2026,16:29:23,1050.78,-222.17,-159.42,1085.78,3501.97,-3369.14,170.9,-939.94
19/7/2026,16:29:23,1174.8,-182.86,-119.14,1194.91,6809.84,6201.17,1965.33,2014.16
19/7/2026,16:29:23,1046.63,-180.42,-69.58,1064.34,6872.18,-6408.69,122.07,2478.03
19/7/2026,16:29:23,1087.16,-201.9,-84.96,1109.01,2419,2026.37,-1074.22,-769.04
19/7/2026,16:29:23,968.51,-229.49,-126.46,1003.33,6434.68,-5932.62,-1379.39,-2075.2
19/7/2026,16:29:23,1005.62,-230.71,-120.12,1038.71,1883.41,1855.47,-61.04,317.38
19/7/2026,16:29:23,987.3,-216.31,-90.82,1014.79,1871.54,-915.53,720.21,1464.84
19/7/2026,16:29:23,971.19,-238.77,-104.25,1005.53,1536.58,-805.66,-1123.05,-671.39
19/7/2026,16:29:23,918.21,-265.62,-116.94,962.99,3036.9,-2648.92,-1342.77,-634.77
19/7/2026,16:29:23,897.95,-274.17,-123.05,946.9,1141.15,-1013.19,-427.25,-305.18
19/7/2026,16:29:23,965.82,-244.14,-105.71,1001.79,3810.75,3393.56,1501.46,866.7
19/7/2026,16:29:23,930.66,-239.01,-70.8,963.47,2490.54,-1757.82,256.35,1745.61
19/7/2026,16:29:23,915.77,-243.9,-108.89,953.93,2059.23,-744.62,-244.14,-1904.3
19/7/2026,16:29:23,982.18,-251.46,-128.66,1021.99,3485.01,3320.31,-378.42,-988.77
19/7/2026,16:29:23,918.21,-233.15,-85.21,951.18,3973.44,-3198.24,915.53,2172.85
19/7/2026,16:29:23,1043.7,-222.9,-108.15,1072.7,6399.04,6274.41,512.69,-1147.46
19/7/2026,16:29:23,1018.8,-233.89,-82.52,1048.55,1869.47,-1245.12,-549.32,1281.74
19/7/2026,16:29:23,1016.6,-225.34,-59.57,1042.98,1229.34,-109.86,427.25,1147.46
19/7/2026,16:29:23,966.8,-251.95,-86.18,1002.8,3121.23,-2490.23,-1330.57,-1330.57
19/7/2026,16:29:23,987.55,-254.39,-61.28,1021.63,1625.37,1037.59,-122.07,1245.12
19/7/2026,16:29:23,1029.79,-231.93,-48.34,1056.69,2477.82,2111.82,1123.05,646.97
19/7/2026,16:29:23,932.13,-260.01,-72.75,970.44,5225.2,-4882.82,-1403.81,-1220.7
19/7/2026,16:29:23,1041.75,-242.19,-87.89,1073.13,5604.27,5480.96,891.11,-756.84
19/7/2026,16:29:23,919.68,-271.48,-96.92,963.8,6293.06,-6103.52,-1464.84,-451.66
19/7/2026,16:29:23,943.6,-276.61,-91.55,987.56,1252.57,1196.29,-256.35,268.55
19/7/2026,16:29:23,992.68,-255.13,-103.03,1030.1,2739.22,2453.61,1074.22,-573.73
19/7/2026,16:29:23,986.57,-257.08,-129.15,1027.66,1344.88,-305.18,-97.66,-1306.15
19/7/2026,16:29:23,1009.52,-234.86,-71.04,1038.91,3315.31,1147.46,1110.84,2905.27
19/7/2026,16:29:23,987.55,-250.73,-56.88,1020.47,1529,-1098.64,-793.46,708.01
19/7/2026,16:29:23,902.83,-243.65,-73,937.98,4326.28,-4235.84,354,-805.66
19/7/2026,16:29:23,1029.3,-248.54,-144.29,1068.66,7262.8,6323.24,-244.14,-3564.45
19/7/2026,16:29:23,1006.1,-264.4,-109.86,1046.05,2221.91,-1159.67,-793.46,1721.19
19/7/2026,16:29:23,994.14,-246.58,-70.31,1026.68,2250,-598.14,891.11,1977.54
19/7/2026,16:29:23,1030.52,-225.59,-48.58,1056.04,2364.45,1818.85,1049.8,1086.43
19/7/2026,16:29:23,962.16,-249.27,-51.51,995.26,3620.22,-3417.97,-1184.08,-146.48
19/7/2026,16:29:23,962.16,-256.35,-74.95,998.54,1224.18,0,-354,-1171.88
19/7/2026,16:29:24,989.99,-242.43,-43.95,1020.19,2196.38,1391.6,695.8,1550.29
19/7/2026,16:29:24,984.86,-258.79,-56.4,1019.86,1059.34,-256.34,-817.87,-622.56
19/7/2026,16:29:24,991.46,-276.61,-73,1031.9,1261.64,329.59,-891.11,-830.08
19/7/2026,16:29:24,1004.64,-275.15,-65.67,1043.7,757.63,659.18,73.24,366.21
19/7/2026,16:29:24,978.27,-280.27,-54.69,1019.1,1451.05,-1318.36,-256.35,549.32
19/7/2026,16:29:24,948.49,-302.73,-40.53,996.45,1995.09,-1489.26,-1123.05,708.01
19/7/2026,16:29:24,991.94,-298.34,-92.53,1039.96,3395.59,2172.85,219.73,-2600.1
19/7/2026,16:29:24,1028.32,-297.61,-120.36,1077.26,2290.44,1818.85,36.62,-1391.6
19/7/2026,16:29:24,966.55,-317.63,-69.34,1019.76,4129.05,-3088.38,-1000.98,2551.27
19/7/2026,16:29:24,968.26,-298.83,-31.74,1013.82,2103.51,85.45,939.94,1879.88
19/7/2026,16:29:24,963.13,-302.98,-52.25,1011.02,1077.13,-256.35,-207.52,-1025.39
19/7/2026,16:29:24,951.17,-312.99,-66.89,1003.58,1069.91,-598.14,-500.49,-732.42
19/7/2026,16:29:24,976.56,-284.18,-61.77,1018.94,1937.07,1269.53,1440.43,256.35
19/7/2026,16:29:24,997.07,-266.11,-76.9,1034.83,1562.12,1025.39,903.32,-756.84
19/7/2026,16:29:24,981.2,-278.32,-109.37,1025.76,1907.35,-793.46,-610.35,-1623.54
19/7/2026,16:29:24,968.99,-285.4,-118.65,1017.09,844.4,-610.35,-354,-463.87
19/7/2026,16:29:24,1004.88,-308.59,-105.22,1056.45,2239.55,1794.43,-1159.67,671.39
19/7/2026,16:29:24,924.56,-327.39,-82.03,984.24,4284.56,-4016.11,-939.94,1159.67
19/7/2026,16:29:24,1004.15,-309.33,-119.38,1057.47,4487.82,3979.49,903.32,-1867.68
19/7/2026,16:29:24,1012.21,-306.4,-131.1,1065.66,725.98,402.83,146.48,-585.94
19/7/2026,16:29:24,1092.04,-289.06,-123.78,1136.41,4101.09,3991.7,866.7,366.21
19/7/2026,16:29:24,1044.68,-287.35,-74.22,1086.02,3428.72,-2368.16,85.45,2478.03
19/7/2026,16:29:24,1037.11,-294.43,-52.25,1079.36,1214.71,-378.42,-354,1098.63
19/7/2026,16:29:24,1021.97,-300.05,-61.28,1066.87,925,-756.84,-280.76,-451.66
19/7/2026,16:29:24,1024.66,-318.6,-83.74,1076.31,1462.86,134.28,-927.73,-1123.05
19/7/2026,16:29:24,1013.92,-304.44,-137.7,1067.55,2840.36,-537.11,708.01,-2697.75
19/7/2026,16:29:24,1050.29,-301.76,-133.3,1100.88,1836.99,1818.85,134.28,219.73
19/7/2026,16:29:24,987.79,-312.74,-59.57,1037.83,4863.93,-3125,-549.32,3686.52
19/7/2026,16:29:24,1016.36,-320.07,-78.61,1068.46,1755.14,1428.22,-366.21,-952.15
19/7/2026,16:29:24,952.88,-330.08,-114.5,1014.91,3680.17,-3173.83,-500.49,-1794.43
19/7/2026,16:29:24,975.1,-344.97,-144.04,1044.3,1992.52,1110.84,-744.63,-1477.05
19/7/2026,16:29:24,980.47,-325.44,-142.09,1042.79,1017.51,268.55,976.56,97.66
19/7/2026,16:29:24,988.04,-321.78,-109.62,1044.88,1677.08,378.41,183.11,1623.54
19/7/2026,16:29:24,938.96,-341.8,-142.82,1009.39,3127.03,-2453.61,-1000.98,-1660.16
19/7/2026,16:29:24,1018.31,-362.3,-176.51,1095.16,4430.42,3967.29,-1025.39,-1684.57
19/7/2026,16:29:24,1032.23,-339.36,-215.33,1107.71,2359.66,695.8,1147.46,-1940.92
19/7/2026,16:29:24,874.76,-385.01,-241.21,985.7,8299.26,-7873.54,-2282.71,-1293.95
19/7/2026,16:29:24,1010.5,-370.61,-210.69,1096.74,6993.7,6787.11,720.21,1525.88
19/7/2026,16:29:24,962.65,-336.43,-92.77,1023.95,6588.46,-2392.58,1708.98,5896
19/7/2026,16:29:24,907.71,-337.4,-30.03,968.86,4169.91,-2746.58,-48.83,3137.21
19/7/2026,16:29:24,820.07,-372.07,-76.66,903.78,5257.9,-4382.32,-1733.4,-2331.54
19/7/2026,16:29:24,940.43,-397.46,-124.27,1028.51,6595.07,6018.06,-1269.53,-2380.37
19/7/2026,16:29:24,810.06,-383.06,-69.34,898.74,7110.13,-6518.55,720.21,2746.58
19/7/2026,16:29:24,774.9,-402.83,-18.07,873.54,3261.75,-1757.81,-988.77,2563.48
19/7/2026,16:29:24,813.23,-387.7,-15.63,901.05,2064.14,1916.5,756.84,122.07
19/7/2026,16:29:24,746.83,-375.24,-31.01,836.37,3464.6,-3320.31,622.56,-769.04
19/7/2026,16:29:24,807.37,-373.78,-126.22,898.61,5642.24,3027.34,73.24,-4760.74
19/7/2026,16:29:24,797.85,-384.77,-177.25,903.34,2652.8,-476.07,-549.32,-2551.27
19/7/2026,16:29:24,675.05,-478.03,-214.84,854.61,7935.97,-6140.14,-4663.09,-1879.88
19/7/2026,16:29:24,687.01,-321.53,-138.18,771.01,8733.6,598.14,7824.71,3833.01
19/7/2026,16:29:25,738.04,-310.06,-136.47,812.07,2616.38,2551.27,573.73,85.45
19/7/2026,16:29:25,806.15,-287.35,-187.26,876.08,4397.14,3405.76,1135.25,-2539.06
19/7/2026,16:29:25,717.04,-296.63,-223.39,807.49,4830.24,-4455.57,-463.87,-1806.64
19/7/2026,16:29:25,776.86,-239.99,-302.49,867.53,5710.29,2990.72,2832.03,-3955.08
19/7/2026,16:29:25,748.54,-261.72,-316.89,853.95,1924.61,-1416.02,-1086.43,-720.21
19/7/2026,16:29:25,858.89,-239.26,-339.84,954.16,5746.44,5517.58,1123.05,-1147.46
19/7/2026,16:29:25,729.49,-280.52,-340.09,852.35,6790.69,-6469.73,-2062.99,-12.21
19/7/2026,16:29:25,755.86,-325.2,-443.85,934.92,5800.31,1318.36,-2233.89,-5187.99
19/7/2026,16:29:25,907.96,-275.15,-347.9,1010.51,9333.42,7604.98,2502.44,4797.36
19/7/2026,16:29:25,910.4,-367.68,-401.61,1060.8,5350.82,122.07,-4626.46,-2685.55
19/7/2026,16:29:25,851.81,-312.74,-253.91,942.26,8406.47,-2929.69,2746.58,7385.25
19/7/2026,16:29:25,810.06,-281.49,-215.82,884.31,3228.78,-2087.4,1562.5,1904.3
19/7/2026,16:29:25,874.51,-258.54,-221.44,938.43,3432.35,3222.66,1147.46,-280.76
19/7/2026,16:29:25,784.42,-286.62,-204.83,859.9,4790.54,-4504.39,-1403.81,830.08
19/7/2026,16:29:25,902.34,-259.03,-206.54,961.24,6055.81,5896,1379.39,-85.45
19/7/2026,16:29:25,968.26,-254.15,-220.21,1025,3374.89,3295.9,244.14,-683.59
19/7/2026,16:29:25,874.51,-251.95,-250.73,943.99,4930.83,-4687.5,109.86,-1525.88
19/7/2026,16:29:25,946.04,-195.07,-346.44,1026.19,6616.64,3576.66,2844.24,-4785.16
19/7/2026,16:29:25,933.59,-196.53,-287.35,996.39,3019.88,-622.56,-73.24,2954.1
19/7/2026,16:29:25,848.63,-180.42,-214.36,893.69,5658.34,-4248.05,805.66,3649.9
19/7/2026,16:29:25,1021,-178.22,-228.52,1061.33,8647.9,8618.17,109.86,-708.01
19/7/2026,16:29:25,1012.21,-195.56,-300.05,1073.7,3706.32,-439.45,-866.7,-3576.66
19/7/2026,16:29:25,904.79,-229.74,-223.14,959.8,6823.12,-5371.09,-1708.98,3845.21
19/7/2026,16:29:25,956.05,-225.34,-218.99,1006.37,2581.23,2563.48,219.73,207.52
19/7/2026,16:29:25,987.55,-256.59,-254.15,1051.52,2830.37,1574.7,-1562.5,-1757.81
19/7/2026,16:29:25,1190.92,-234.86,-230.47,1235.54,10294.66,10168.46,1086.43,1184.08
19/7/2026,16:29:25,1088.38,-258.06,-232.91,1142.54,5257.89,-5126.95,-1159.67,-122.07
19/7/2026,16:29:25,1053.71,-271.97,-333.01,1138.06,5342.07,-1733.4,-695.8,-5004.88
19/7/2026,16:29:25,1328.86,-212.4,-413.82,1407.91,14644.5,13757.32,2978.52,-4040.53
19/7/2026,16:29:25,1191.65,-218.02,-349.12,1260.73,7589.97,-6860.35,-280.76,3234.86
19/7/2026,16:29:25,1165.77,-193.36,-265.87,1211.24,4530.08,-1293.95,1232.91,4162.6
19/7/2026,16:29:25,1177.73,-158.94,-255.37,1215.54,1896.26,598.14,1721.19,524.9
19/7/2026,16:29:25,1217.77,-124.76,-255.13,1250.45,2632.22,2001.95,1708.98,12.21
19/7/2026,16:29:25,1134.28,-113.77,-204.83,1158.23,4904.51,-4174.8,549.32,2514.65
19/7/2026,16:29:25,1098.88,-98.39,-169.19,1116.17,2626.92,-1770.02,769.04,1782.23
19/7/2026,16:29:25,1075.44,-107.91,-141.11,1090.01,1889.61,-1171.88,-476.07,1403.81
19/7/2026,16:29:25,991.94,-135.5,-78.37,1004.22,5401.28,-4174.81,-1379.39,3137.21
19/7/2026,16:29:25,999.51,-109.13,-90.33,1009.5,1496.35,378.42,1318.36,-598.14
19/7/2026,16:29:25,931.4,-110.6,-80.81,941.41,3439.65,-3405.76,-73.24,476.07
19/7/2026,16:29:25,980.47,-122.31,-138.92,997.79,3847.62,2453.61,-585.94,-2905.27
19/7/2026,16:29:25,949.46,-149.66,-129.15,969.82,2123.92,-1550.29,-1367.19,488.28
19/7/2026,16:29:25,878.66,-175.78,-191.16,916.24,4883.8,-3540.04,-1306.15,-3100.59
19/7/2026,16:29:25,1033.69,-173.34,-236.57,1074.49,8078.08,7751.46,122.07,-2270.51
19/7/2026,16:29:25,881.84,-173.1,-185.06,917.52,8017.76,-7592.77,12.21,2575.68
19/7/2026,16:29:25,984.86,-242.92,-216.55,1037.24,6419.1,5151.37,-3491.21,-1574.71
19/7/2026,16:29:25,869.38,-142.58,-157.23,894.92,8204.17,-5773.93,5017.09,2966.31
19/7/2026,16:29:25,1116.7,-88.87,-135.74,1128.42,12699.5,12365.72,2685.55,1074.22
19/7/2026,16:29:25,966.55,-121.83,-116.21,981.11,7747.86,-7507.32,-1647.95,976.56
19/7/2026,16:29:25,1062.26,-113.04,-154.05,1079.3,5164.38,4785.16,439.45,-1892.09
19/7/2026,16:29:25,1062.99,-119.14,-144.04,1079.3,587.33,36.62,-305.18,500.49
19/7/2026,16:29:26,968.51,-133.06,-118.16,984.72,4947.3,-4724.12,-695.8,1293.95
19/7/2026,16:29:26,996.83,-118.41,-132.32,1012.52,1744.37,1416.01,732.42,-708.01
19/7/2026,16:29:26,1027.59,-132.08,-184.33,1052.31,3097.34,1538.09,-683.59,-2600.1
19/7/2026,16:29:26,1020.75,-127.69,-181.15,1044.54,436.22,-341.8,219.73,158.69
19/7/2026,16:29:26,951.42,-146.73,-150.15,974.3,3915.19,-3466.8,-952.15,1550.29
19/7/2026,16:29:26,1022.71,-119.14,-153.81,1041.05,3826.43,3564.45,1379.39,-183.11
19/7/2026,16:29:26,922.12,-135.01,-147.95,943.62,5099.92,-5029.3,-793.46,292.97
19/7/2026,16:29:26,1042.48,-117.19,-177.49,1063.96,6260.42,6018.07,891.11,-1477.05
19/7/2026,16:29:26,1002.2,-145.51,-179.44,1028.48,2464.04,-2014.16,-1416.02,-97.66
19/7/2026,16:29:26,1004.15,-121.58,-143.31,1021.59,2169.01,97.66,1196.29,1806.64
19/7/2026,16:29:26,929.93,-146,-161.62,955.1,4012.4,-3710.94,-1220.7,-915.53
19/7/2026,16:29:26,987.06,-124.02,-146.97,1005.62,3146.86,2856.44,1098.63,732.42
19/7/2026,16:29:26,998.29,-137.21,-183.84,1024.31,2036.53,561.52,-659.18,-1843.26
19/7/2026,16:29:26,980.96,-158.2,-192.38,1012.09,1426.81,-866.7,-1049.8,-427.25
19/7/2026,16:29:26,983.89,-141.85,-183.11,1010.78,951.6,146.48,817.87,463.87
19/7/2026,16:29:26,920.17,-144.04,-125.73,939.82,4288.6,-3186.04,-109.86,2868.65
19/7/2026,16:29:26,1000.24,-138.92,-146.97,1020.48,4150.28,4003.91,256.35,-1062.01
19/7/2026,16:29:26,998.29,-141.36,-166.02,1021.83,964.9,-97.66,-122.07,-952.15
19/7/2026,16:29:26,1006.84,-134.52,-138.43,1025.17,1483.95,427.25,341.8,1379.39
19/7/2026,16:29:26,983.64,-138.67,-138.67,1003,1178.16,-1159.67,-207.52,-12.21
19/7/2026,16:29:26,988.77,-98.63,-74.71,996.48,3781.84,256.35,2001.95,3198.24
19/7/2026,16:29:26,995.36,-121.83,-110.6,1008.87,2161.82,329.59,-1159.67,-1794.43
19/7/2026,16:29:26,1009.77,-138.67,-131.59,1027.7,1526.52,720.22,-842.29,-1049.8
19/7/2026,16:29:26,973.14,-156.74,-116.46,992.54,2177.51,-1831.05,-903.32,756.84
19/7/2026,16:29:26,1018.31,-147.22,-122.31,1036.14,2326.46,2258.3,476.07,-292.97
19/7/2026,16:29:26,970.95,-149.66,-147.22,993.38,2678.32,-2368.16,-122.07,-1245.12
19/7/2026,16:29:26,1001.95,-143.07,-109.86,1018.06,2449.54,1550.29,329.59,1867.68
19/7/2026,16:29:26,1037.6,-127.69,-119.87,1052.27,2004.56,1782.23,769.04,-500.49
19/7/2026,16:29:26,1044.43,-126.95,-123.05,1059.29,378.61,341.8,36.62,-158.69
19/7/2026,16:29:26,997.8,-146.73,-125,1016.25,2534.42,-2331.55,-988.77,-97.66
19/7/2026,16:29:26,993.41,-120.36,-127.69,1008.79,1343.27,-219.73,1318.36,-134.28
19/7/2026,16:29:26,984.37,-163.82,-130.13,1006.36,2222.65,-451.66,-2172.85,-122.07
19/7/2026,16:29:26,948.24,-170.17,-114.01,970.11,2003.44,-1806.64,-317.38,805.66
19/7/2026,16:29:26,1006.35,-146.97,-114.01,1023.39,3128.17,2905.28,1159.67,0
19/7/2026,16:29:26,985.6,-166.02,-115.72,1006.16,1410.85,-1037.6,-952.15,-85.45
19/7/2026,16:29:26,953.61,-153.56,-137.7,975.66,2037.58,-1599.11,622.56,-1098.63
19/7/2026,16:29:26,985.84,-139.4,-149.66,1006.83,1858.88,1611.33,708.01,-598.14
19/7/2026,16:29:26,971.19,-141.11,-110.6,987.6,2087.69,-732.42,-85.45,1953.13
19/7/2026,16:29:26,1019.04,-131.1,-101.81,1032.47,2483.55,2392.58,500.49,439.45
19/7/2026,16:29:26,1008.79,-142.82,-113.28,1025.13,967.13,-512.7,-585.94,-573.73
19/7/2026,16:29:26,982.91,-138.18,-110.11,998.66,1324.11,-1293.95,231.93,158.69
19/7/2026,16:29:26,948,-148.68,-111.33,966.02,1823.84,-1745.61,-524.9,-61.04
19/7/2026,16:29:26,1006.59,-151.12,-135.25,1026.82,3166.87,2929.69,-122.07,-1196.29
19/7/2026,16:29:26,998.29,-149.9,-101.07,1014.53,1759.72,-415.04,61.04,1708.98
19/7/2026,16:29:26,989.26,-153.32,-91.55,1005.25,678.12,-451.66,-170.9,476.07
19/7/2026,16:29:26,1010.5,-156.74,-128.42,1030.61,2134.17,1062.01,-170.9,-1843.26
19/7/2026,16:29:26,991.46,-146.73,-139.65,1011.94,1213.42,-952.15,500.49,-561.52
19/7/2026,16:29:26,983.64,-151.86,-119.63,1002.46,1104.65,-390.62,-256.35,1000.98
19/7/2026,16:29:26,962.65,-148.68,-107.18,979.94,1230.79,-1049.8,158.69,622.56
19/7/2026,16:29:26,963.87,-146.24,-146.48,985.84,1970.06,61.04,122.07,-1965.33
19/7/2026,16:29:27,1056.4,-145.75,-166.26,1079.29,4731.01,4626.46,24.41,-988.77
19/7/2026,16:29:27,978.03,-164.55,-109.37,997.79,4932.29,-3918.46,-939.94,2844.24
19/7/2026,16:29:27,1000.73,-147.46,-37.11,1012.22,3882.62,1135.25,854.49,3613.28
19/7/2026,16:29:27,933.35,-163.33,2.93,947.54,3998.56,-3369.14,-793.46,2001.95
19/7/2026,16:29:27,962.16,-167.48,16.11,976.76,1597.63,1440.43,-207.52,659.18
19/7/2026,16:29:27,916.02,-132.08,-64.7,927.75,4978.12,-2307.13,1770.02,-4040.53
19/7/2026,16:29:27,966.31,-151.61,-157.71,990.76,5376.6,2514.65,-976.56,-4650.88
19/7/2026,16:29:27,1061.52,-137.45,-187.99,1086.77,5045.5,4760.74,708.01,-1513.67
19/7/2026,16:29:27,935.3,-133.06,-151.37,956.77,6574.97,-6311.04,219.73,1831.05
19/7/2026,16:29:27,970.21,-92.77,-127.44,982.94,2921.49,1745.61,2014.16,1196.29
19/7/2026,16:29:27,873.29,-143.55,-219.24,911.76,7141.36,-4846.19,-2539.06,-4589.84
19/7/2026,16:29:27,972.66,-149.17,-224.37,1009.28,4982.79,4968.26,-280.76,-256.35
19/7/2026,16:29:27,1112.3,-77.88,-119.87,1121.45,9421.04,6982.42,3564.45,5224.61
19/7/2026,16:29:27,958.01,-55.42,-27.59,960.01,9059.33,-7714.84,1123.05,4614.26
19/7/2026,16:29:27,1036.87,-21.97,34.67,1037.68,5294.57,3942.87,1672.36,3112.79
19/7/2026,16:29:27,780.27,-54.2,-52,783.88,13637.23,-12829.59,-1611.33,-4333.5
19/7/2026,16:29:27,739.26,-34.67,-417.48,849.7,18414.55,-2050.78,976.56,-18273.92
19/7/2026,16:29:27,978.76,-151.37,-405.52,1070.2,13334.45,11975.1,-5834.96,598.14
19/7/2026,16:29:27,1179.69,-4.88,-333.98,1226.06,12937.02,10046.39,7324.22,3576.66
19/7/2026,16:29:27,1073.97,20.51,-181.4,1089.38,9367.89,-5285.64,1269.53,7629.39
19/7/2026,16:29:27,1006.1,10.5,-128.17,1014.29,4341.47,-3393.55,-500.49,2661.13
19/7/2026,16:29:27,935.06,9.28,-242.92,966.14,6748.25,-3552.25,-61.04,-5737.3
19/7/2026,16:29:27,891.6,4.15,-371.83,966.04,6806.54,-2172.85,-256.35,-6445.31
19/7/2026,16:29:27,967.29,-51.51,-407.23,1050.77,5019.88,3784.18,-2783.2,-1770.02
19/7/2026,16:29:27,1086.91,100.83,-213.87,1112.33,13684.62,5981.44,7617.19,9667.97
19/7/2026,16:29:27,1100.83,92.04,-65.67,1106.62,7455.23,695.8,-439.45,7409.67
19/7/2026,16:29:27,906.74,91.06,46.88,912.5,11218.27,-9704.59,-48.83,5627.44
19/7/2026,16:29:27,844.24,41.75,-182.86,864.82,12157.01,-3125,-2465.82,-11486.82
19/7/2026,16:29:27,1109.86,127.69,-388.67,1182.86,17342.14,13281.25,4296.88,-10290.53
19/7/2026,16:29:27,1124.27,75.2,-456.79,1215.85,4359.59,720.21,-2624.51,-3405.76
19/7/2026,16:29:27,1039.31,18.31,-398.93,1113.39,5874.13,-4248.05,-2844.24,2893.07
19/7/2026,16:29:27,947.75,31.74,-460.69,1054.27,5562.7,-4577.64,671.39,-3088.38
19/7/2026,16:29:27,1007.81,28.81,-574.71,1160.52,6444.91,3002.93,-146.48,-5700.68
19/7/2026,16:29:27,963.62,-34.18,-618.65,1145.63,4430.41,-2209.47,-3149.41,-2197.27
19/7/2026,16:29:27,822.51,-23.68,-530.52,979.05,8335.3,-7055.66,524.9,4406.74
19/7/2026,16:29:27,939.94,0.73,-466.31,1049.25,6802.39,5871.58,1220.7,3210.45
19/7/2026,16:29:27,1013.18,-5.86,-320.8,1062.77,8151.75,3662.11,-329.59,7275.39
19/7/2026,16:29:27,974.61,51.03,-178.22,992.08,7913.97,-1928.71,2844.24,7128.91
19/7/2026,16:29:27,970.46,-2.44,-168.21,984.93,2727.69,-207.52,-2673.34,500.49
19/7/2026,16:29:27,963.87,-23.19,-52.98,965.6,5863.67,-329.59,-1037.6,5761.72
19/7/2026,16:29:27,922.85,-18.55,-15.63,923.17,2783.47,-2050.78,231.93,1867.68
19/7/2026,16:29:27,993.9,12.21,-33.45,994.53,3972.18,3552.24,1538.09,-891.11
19/7/2026,16:29:27,1081.05,59.08,-192.38,1099.63,9361.4,4357.91,2343.75,-7946.78
19/7/2026,16:29:27,977.54,-15.14,-337.65,1034.32,9659.9,-5175.78,-3710.94,-7263.18
19/7/2026,16:29:27,988.28,-25.88,-353.03,1049.76,1080.93,537.11,-537.11,-769.04
19/7/2026,16:29:27,943.12,-16.85,-247.56,975.21,5754.4,-2258.3,451.66,5273.44
19/7/2026,16:29:27,1045.65,27.1,-188.23,1062.81,6317.64,5126.95,2197.27,2966.31
19/7/2026,16:29:27,1093.99,1.95,-157.96,1105.34,3116.72,2416.99,-1257.32,1513.67
19/7/2026,16:29:27,1082.03,-1.46,-150.63,1092.47,721.87,-598.14,-170.9,366.21
19/7/2026,16:29:27,1078.86,-27.34,-230.22,1103.49,4187.58,-158.69,-1293.95,-3979.49
19/7/2026,16:29:28,1087.65,-16.11,-115.48,1093.88,5781.44,439.45,561.52,5737.3
19/7/2026,16:29:28,1171.63,43.95,-23.68,1172.69,6907.8,4199.22,3002.93,4589.84
19/7/2026,16:29:28,1174.32,50.29,-0.49,1175.39,1209.79,134.28,317.38,1159.67
19/7/2026,16:29:28,1161.62,31.25,-51.76,1163.19,2807.3,-634.77,-952.15,-2563.48
19/7/2026,16:29:28,1152.59,-3.66,-75.68,1155.08,2163.85,-451.66,-1745.61,-1196.29
19/7/2026,16:29:28,1189.45,-16.36,-35.16,1190.09,2811.89,1843.26,-634.77,2026.37
19/7/2026,16:29:28,1142.33,4.15,27.59,1142.67,4055.12,-2355.96,1025.39,3137.21
19/7/2026,16:29:28,1100.34,-14.89,-80.08,1103.35,5856.18,-2099.61,-952.15,-5383.3
19/7/2026,16:29:28,1056.88,-58.59,-229.25,1083.05,8070,-2172.85,-2185.06,-7458.5
19/7/2026,16:29:28,1086.43,-71.04,-255.62,1118.35,2075.41,1477.05,-622.56,-1318.36
19/7/2026,16:29:28,967.53,-31.25,-233.4,995.77,6366.63,-5944.82,1989.75,1110.84
19/7/2026,16:29:28,903.81,-48.1,-274.17,945.7,3875.06,-3186.04,-842.29,-2038.58
19/7/2026,16:29:28,983.89,-37.11,-379.39,1055.15,6634.27,4003.91,549.32,-5261.23
19/7/2026,16:29:28,884.52,-82.28,-431.88,987.76,6055.71,-4968.26,-2258.3,-2624.51
19/7/2026,16:29:28,792.24,-118.16,-444.34,915.99,4989.88,-4614.25,-1794.43,-622.56
19/7/2026,16:29:28,845.7,-90.33,-418.95,948.1,3270.32,2673.34,1391.6,1269.53
19/7/2026,16:29:28,872.31,-70.56,-371.83,950.88,2880.73,1330.57,988.77,2355.96
19/7/2026,16:29:28,941.16,-40.77,-333.25,999.25,4217.56,3442.38,1489.26,1928.71
19/7/2026,16:29:28,898.19,-62.26,-343.26,963.56,2453.62,-2148.44,-1074.22,-500.49
19/7/2026,16:29:28,771.24,-84.96,-298.1,831.2,6832.38,-6347.65,-1135.25,2258.3
19/7/2026,16:29:28,843.99,-59.81,-262.45,885.88,4241.46,3637.7,1257.32,1782.23
19/7/2026,16:29:28,783.94,-104,-331.54,857.49,5082.67,-3002.93,-2209.47,-3454.59
19/7/2026,16:29:28,743.41,-126.46,-347.9,830.47,2456.89,-2026.37,-1123.05,-817.87
19/7/2026,16:29:28,841.31,-99.85,-354,918.2,5081.8,4895.02,1330.57,-305.18
19/7/2026,16:29:28,817.38,-81.79,-321.53,882.15,2209.74,-1196.29,903.32,1623.54
19/7/2026,16:29:28,723.88,-92.53,-374.02,820.03,5388.41,-4675.29,-537.11,-2624.51
19/7/2026,16:29:28,835.94,-138.43,-475.83,971.79,7910.25,5603.02,-2294.92,-5090.33
19/7/2026,16:29:28,742.19,-119.14,-434.57,868.27,5211.38,-4687.5,964.36,2062.99
19/7/2026,16:29:28,849.61,-98.88,-361.33,928.53,6579.23,5371.09,1013.18,3662.11
19/7/2026,16:29:28,862.79,-64.94,-318.12,921.86,2825.24,659.19,1696.78,2160.64
19/7/2026,16:29:28,811.04,-121.58,-394.04,909.85,5397.24,-2587.89,-2832.03,-3796.39
19/7/2026,16:29:28,803.22,-135.25,-408.94,911.42,1083.68,-390.62,-683.59,-744.63
19/7/2026,16:29:28,752.69,-108.89,-337.89,832.2,4554.29,-2526.86,1318.36,3552.25
19/7/2026,16:29:28,810.06,-69.58,-362.06,890.01,3681.33,2868.65,1965.33,-1208.5
19/7/2026,16:29:28,995.36,-24.41,-351.56,1055.91,9550.82,9265.13,2258.3,524.9
19/7/2026,16:29:28,858.4,-91.55,-356.69,934.05,7630.97,-6848.14,-3356.93,-256.35
19/7/2026,16:29:28,517.58,-131.59,-328.37,626.92,17216.54,-17041.02,-2001.95,1416.02
19/7/2026,16:29:28,861.08,-49.56,-402.1,951.63,18038.96,17175.29,4101.56,-3686.52
19/7/2026,16:29:28,916.26,-50.78,-333.74,976.47,4392.85,2758.79,-61.04,3417.97
19/7/2026,16:29:28,821.29,-103.03,-380.37,910.94,5899.9,-4748.54,-2612.3,-2331.54
19/7/2026,16:29:28,703.61,-128.66,-330.08,787.77,6525.74,-5883.79,-1281.74,2514.65
19/7/2026,16:29:28,707.28,-85.45,-410.16,822.05,4553.37,183.11,2160.64,-4003.91
19/7/2026,16:29:28,959.72,-19.53,-497.8,1081.32,13761.7,12622.07,3295.9,-4382.32
19/7/2026,16:29:28,1156.74,12.21,-485.11,1254.4,9998.24,9851.07,1586.91,634.77
19/7/2026,16:29:28,998.05,-9.77,-307.62,1044.42,11954.97,-7934.57,-1098.63,8874.51
19/7/2026,16:29:28,859.62,-14.65,-125.49,868.85,11440.83,-6921.39,-244.14,9106.45
19/7/2026,16:29:28,1071.29,65.19,-159.67,1085.08,11439.61,10583.5,3991.7,-1708.98
19/7/2026,16:29:28,1321.53,105.96,-373.54,1377.39,16584.9,12512.21,2038.57,-10693.36
19/7/2026,16:29:28,1235.11,39.06,-441.65,1312.28,6438.94,-4321.29,-3344.73,-3405.76
19/7/2026,16:29:28,1228.52,55.91,-304.2,1266.85,6931.82,-329.59,842.29,6872.56
19/7/2026,16:29:29,1112.3,69.82,-136.96,1122.88,10206.2,-5810.55,695.8,8361.82
19/7/2026,16:29:29,1229,114.5,-114.01,1239.58,6352.46,5834.96,2233.89,1147.46
19/7/2026,16:29:29,1290.53,100.83,-168.7,1305.41,4172.16,3076.17,-683.59,-2734.38
19/7/2026,16:29:29,1160.4,63.72,-211.91,1181.31,7102.37,-6506.35,-1855.47,-2160.64
19/7/2026,16:29:29,983.89,21.97,-137.21,993.65,9808.3,-8825.68,-2087.4,3735.35
19/7/2026,16:29:29,1123.54,57.86,-97.66,1129.25,7475.62,6982.42,1794.43,1977.54
19/7/2026,16:29:29,1080.57,63.72,-19.29,1082.62,4478.38,-2148.44,292.97,3918.46
19/7/2026,16:29:29,1025.63,38.57,-67.14,1028.55,3853.44,-2746.58,-1257.32,-2392.58
19/7/2026,16:29:29,1013.43,28.08,-116.7,1020.51,2605.51,-610.35,-524.9,-2478.03
19/7/2026,16:29:29,846.44,-15.14,-238.77,879.6,10565.85,-8349.61,-2160.64,-6103.52
19/7/2026,16:29:29,1032.71,22.71,-200.93,1052.32,9690.71,9313.96,1892.09,1892.09
19/7/2026,16:29:29,976.81,35.4,-133.3,986.5,4432.92,-2795.41,634.77,3381.35
19/7/2026,16:29:29,928.22,17.58,-123.29,936.54,2635.45,-2429.2,-891.11,500.49
19/7/2026,16:29:29,960.94,37.35,-167.97,976.22,2940,1635.75,988.77,-2233.89
19/7/2026,16:29:29,1005.62,11.47,-195.8,1024.56,2932.76,2233.88,-1293.95,-1391.6
19/7/2026,16:29:29,982.18,38.57,-163.82,996.49,2401.35,-1171.88,1354.98,1599.12
19/7/2026,16:29:29,945.07,36.87,-150.63,957.71,1970.93,-1855.47,-85.45,659.18
19/7/2026,16:29:29,1039.06,31.49,-158.2,1051.51,4722.56,4699.71,-268.55,-378.42
19/7/2026,16:29:29,1051.76,46.63,-155.03,1064.14,1000.46,634.77,756.84,158.69
19/7/2026,16:29:29,997.31,34.42,-73.24,1000.59,4950.31,-2722.17,-610.35,4089.36
19/7/2026,16:29:29,1045.17,52.73,-81.3,1049.65,2593.24,2392.58,915.53,-402.83
19/7/2026,16:29:29,1112.06,56.64,-89.84,1117.12,3377.56,3344.73,195.31,-427.25
19/7/2026,16:29:29,1035.4,53.71,-100.59,1041.66,3873.23,-3833.01,-146.48,-537.11
19/7/2026,16:29:29,1069.58,30.52,-149.9,1080.46,3216.48,1708.98,-1159.67,-2465.82
19/7/2026,16:29:29,1048.1,34.91,-152.34,1059.68,1103.23,-1074.22,219.73,-122.07
19/7/2026,16:29:29,999.27,20.26,-104,1004.87,3512.66,-2441.41,-732.42,2416.99
19/7/2026,16:29:29,978.76,15.87,-114.26,985.53,1167.29,-1025.39,-219.73,-512.7
19/7/2026,16:29:29,1053.71,33.94,-166.26,1067.29,4649.81,3747.56,903.32,-2600.1
19/7/2026,16:29:29,930.66,2.93,-146,942.05,6425.05,-6152.35,-1550.29,1013.18
19/7/2026,16:29:29,1020.51,5.37,-166.02,1033.94,4603.98,4492.19,122.07,-1000.98
19/7/2026,16:29:29,952.39,-1.46,-145.26,963.41,3576.68,-3405.76,-341.8,1037.6
19/7/2026,16:29:29,1031.49,2.93,-158.2,1043.56,4013.66,3955.08,219.73,-646.97
19/7/2026,16:29:29,1019.53,0.49,-143.55,1029.59,953.48,-598.14,-122.07,732.42
19/7/2026,16:29:29,943.6,-10.5,-122.56,951.59,3976.98,-3796.39,-549.32,1049.8
19/7/2026,16:29:29,1084.96,10.25,-119.38,1091.56,7145.39,7067.87,1037.6,158.69
19/7/2026,16:29:29,1041.99,-1.22,-114.01,1048.21,2239.88,-2148.44,-573.73,268.56
19/7/2026,16:29:29,1033.2,-5.37,-124.76,1040.72,724.34,-439.45,-207.52,-537.11
19/7/2026,16:29:29,1082.52,-7.57,-129.88,1090.31,2481.54,2465.82,-109.86,-256.35
19/7/2026,16:29:29,1114.99,-23.68,-139.16,1123.89,1870.86,1623.54,-805.66,-463.87
19/7/2026,16:29:29,1063.23,-34.67,-142.58,1073.31,2651.06,-2587.89,-549.32,-170.9
19/7/2026,16:29:29,1091.8,-34.67,-162.84,1104.42,1751.1,1428.22,0,-1013.18
19/7/2026,16:29:29,1206.54,-8.79,-190.67,1221.55,6043.8,5737.3,1293.95,-1391.6
19/7/2026,16:29:29,1212.4,7.32,-139.4,1220.41,2703.02,292.97,805.66,2563.48
19/7/2026,16:29:29,1184.57,19.53,-116.94,1190.49,1889.53,-1391.6,610.35,1123.05
19/7/2026,16:29:29,1081.79,-17.33,-147.95,1091.99,5675.56,-5139.16,-1843.26,-1550.29
19/7/2026,16:29:29,1056.88,-21.24,-151.86,1067.95,1275.39,-1245.12,-195.31,-195.31
19/7/2026,16:29:29,1032.23,-17.58,-138.18,1041.58,1421.58,-1232.91,183.11,683.59
19/7/2026,16:29:29,1021.48,-29.79,-157.71,1034.02,1270.7,-537.11,-610.35,-976.56
19/7/2026,16:29:29,1066.65,-15.14,-145.51,1076.64,2451.3,2258.3,732.42,610.35
19/7/2026,16:29:29,953.86,-50.29,-149.17,966.76,5910.08,-5639.65,-1757.81,-183.11
19/7/2026,16:29:30,974.37,-62.99,-175.29,992.01,1777.75,1025.39,-634.77,-1306.15
19/7/2026,16:29:30,959.47,-78.37,-171.87,977.89,1084.02,-744.63,-769.04,170.9
19/7/2026,16:29:30,960.21,-59.81,-141.36,972.4,1786.15,36.62,927.73,1525.88
19/7/2026,16:29:30,914.79,-99.61,-138.18,930.52,3023.15,-2270.5,-1989.75,158.69
19/7/2026,16:29:30,897.22,-117.43,-161.62,919.19,1714.6,-878.91,-891.11,-1171.88
19/7/2026,16:29:30,869.38,-124.02,-227.29,907.12,3581.59,-1391.6,-329.59,-3283.69
19/7/2026,16:29:30,906.49,-126.95,-219.97,941.4,1896.93,1855.47,-146.48,366.21
19/7/2026,16:29:30,888.18,-117.43,-184.81,914.78,2038.32,-915.53,476.07,1757.81
19/7/2026,16:29:30,817.63,-137.21,-195.56,851.81,3702.94,-3527.83,-988.77,-537.11
19/7/2026,16:29:30,906.49,-117.68,-231.45,942.95,4890.51,4443.36,976.56,-1794.43
19/7/2026,16:29:30,883.79,-191.41,-241.94,936.09,3892.92,-1135.26,-3686.52,-524.9
19/7/2026,16:29:30,883.54,-149.9,-150.63,908.74,5014.95,-12.21,2075.2,4565.43
19/7/2026,16:29:30,933.11,-134.03,-148.44,954.3,2604.28,2478.03,793.46,109.86
19/7/2026,16:29:30,934.81,-149.66,-226.81,973.51,3996.49,85.45,-781.25,-3918.46
19/7/2026,16:29:30,988.04,-104.49,-217.04,1016.98,3524.2,2661.13,2258.3,488.28
19/7/2026,16:29:30,929.93,-100.83,-200.93,956.72,3020.47,-2905.27,183.11,805.66
19/7/2026,16:29:30,890.38,-86.67,-199.46,916.56,2101.74,-1977.54,708.01,73.24
19/7/2026,16:29:30,926.03,-83.74,-247.8,962.26,3006.6,1782.23,146.48,-2416.99
19/7/2026,16:29:30,729,-102.05,-294.19,792.72,10161.75,-9851.07,-915.53,-2319.34
19/7/2026,16:29:30,824.71,-78.12,-333.74,893.1,5314.08,4785.16,1196.29,-1977.54
19/7/2026,16:29:30,820.31,-76.42,-309.81,880.19,1219.3,-219.73,85.45,1196.29
19/7/2026,16:29:30,781.98,-40.53,-275.63,830.13,3132.67,-1916.5,1794.43,1708.98
19/7/2026,16:29:30,826.66,-48.34,-353.52,900.38,4506.26,2233.89,-390.62,-3894.04
19/7/2026,16:29:30,705.57,-51.51,-385.74,805.78,6267.44,-6054.69,-158.69,-1611.33
19/7/2026,16:29:30,719.24,-17.33,-352.29,801.07,2486.91,683.59,1708.98,1672.36
19/7/2026,16:29:30,778.32,-1.71,-326.17,843.9,3323.12,2954.1,781.25,1306.15
19/7/2026,16:29:30,877.44,34.67,-368.16,952.18,5681.46,4956.05,1818.85,-2099.61
19/7/2026,16:29:30,969.48,18.55,-490.72,1086.76,7705.81,4602.05,-805.66,-6127.93
19/7/2026,16:29:30,972.17,-39.06,-491.94,1090.25,2884.63,134.28,-2880.86,-61.04
19/7/2026,16:29:30,804.93,-33.45,-400.88,899.85,9525.26,-8361.82,280.76,4553.22
19/7/2026,16:29:30,989.26,22.46,-389.4,1063.38,9648,9216.31,2795.41,573.73
19/7/2026,16:29:30,1026.37,11.96,-390.87,1098.34,1929.68,1855.47,-524.9,-73.24
19/7/2026,16:29:30,785.89,-33.2,-333.5,854.37,12565.98,-12023.93,-2258.3,2868.65
19/7/2026,16:29:30,735.11,-0.24,-274.66,784.74,4221.06,-2539.06,1647.95,2941.89
19/7/2026,16:29:30,969.48,93.02,-291.5,1016.62,12640.53,11718.75,4663.09,-842.29
19/7/2026,16:29:30,1032.96,132.81,-284.42,1079.6,3762.66,3173.83,1989.75,354
19/7/2026,16:29:30,894.78,132.32,-369.38,977.02,8110.69,-6909.18,-24.41,-4248.05
19/7/2026,16:29:30,820.56,87.89,-477.29,953.34,6915.09,-3710.93,-2221.68,-5395.51
19/7/2026,16:29:30,1010.74,108.4,-443.36,1109.02,9713.74,9509.28,1025.39,1696.78
19/7/2026,16:29:30,1049.32,159.42,-405.52,1136.19,3716.03,1928.71,2551.27,1892.09
19/7/2026,16:29:30,861.82,60.3,-354.98,934.01,10901.29,-9375,-4956.05,2526.86
19/7/2026,16:29:30,828.86,51.76,-209.23,856.42,7483.81,-1647.95,-427.25,7287.6
19/7/2026,16:29:30,1002.2,96.44,-161.38,1019.68,9264.53,8666.99,2233.89,2392.58
19/7/2026,16:29:30,1133.79,172.12,-204.1,1164.8,7885.08,6579.59,3784.18,-2136.23
19/7/2026,16:29:30,1289.55,211.67,-301.76,1341.19,9402.49,7788.09,1977.54,-4882.81
19/7/2026,16:29:30,1265.87,208.74,-281.49,1313.48,1565.26,-1184.08,-146.48,1013.18
19/7/2026,16:29:30,1316.41,228.76,-217.29,1353.69,4206.42,2526.86,1000.98,3210.45
19/7/2026,16:29:30,1171.39,272.22,-162.6,1213.54,8048.28,-7250.98,2172.85,2734.38
19/7/2026,16:29:30,1208.98,184.33,-127.93,1229.63,5084.34,1879.88,-4394.53,1733.4
19/7/2026,16:29:30,1165.04,183.35,-124.27,1185.91,2205.42,-2197.27,-48.83,183.11
19/7/2026,16:29:31,1050.54,153.81,-104.49,1066.87,5994.67,-5725.1,-1477.05,988.77
19/7/2026,16:29:31,993.9,126.22,-159.67,1014.52,4187.37,-2832.03,-1379.39,-2758.79
19/7/2026,16:29:31,1017.82,96.44,-108.4,1028.11,3196.94,1196.29,-1489.26,2563.48
19/7/2026,16:29:31,965.33,82.76,-99.37,973.96,2749.43,-2624.51,-683.59,451.66
19/7/2026,16:29:31,888.92,82.28,-138.67,903.42,4296.71,-3820.81,-24.41,-1965.33
19/7/2026,16:29:31,950.2,77.64,-210.45,976.31,4724.58,3063.97,-231.93,-3588.87
19/7/2026,16:29:31,945.56,97.17,-183.59,968.1,1676.46,-231.94,976.56,1342.77
19/7/2026,16:29:31,897.71,95.95,-194.09,923.45,2450.24,-2392.58,-61.04,-524.9
19/7/2026,16:29:31,1007.81,117.43,-177,1029.95,5673.91,5505.37,1074.22,854.49
19/7/2026,16:29:31,1013.92,121.83,-209.47,1042.47,1666.52,305.18,219.73,-1623.53
19/7/2026,16:29:31,1001.46,122.31,-198,1028.15,846.96,-622.56,24.41,573.73
19/7/2026,16:29:31,1001.22,128.42,-163.57,1022.59,1748.08,-12.21,305.18,1721.19
19/7/2026,16:29:31,968.99,119.87,-124.02,984.23,2586.42,-1611.33,-427.25,1977.54
19/7/2026,16:29:31,1018.55,145.75,-136.96,1038.01,2869.41,2478.03,1293.94,-646.97
19/7/2026,16:29:31,976.81,124.51,-155.76,996.95,2523.61,-2087.4,-1062.01,-939.94
19/7/2026,16:29:31,1009.52,116.7,-170.17,1030.39,1829.47,1635.74,-390.63,-720.21
19/7/2026,16:29:31,1014.89,125.24,-199.71,1041.91,1560.88,268.55,427.25,-1477.05
19/7/2026,16:29:31,947.02,99.37,-227.29,978.97,3885,-3393.55,-1293.95,-1379.39
19/7/2026,16:29:31,998.29,95.7,-198.24,1022.27,2952.13,2563.47,-183.11,1452.64
19/7/2026,16:29:31,994.63,116.21,-158.2,1013.81,2256.72,-183.1,1025.39,2001.95
19/7/2026,16:29:31,1001.71,112.06,-194.34,1026.52,1852.66,354,-207.52,-1806.64
19/7/2026,16:29:31,1027.34,115.97,-217.04,1056.4,1723.31,1281.74,195.31,-1135.25
19/7/2026,16:29:31,982.42,96.44,-202.15,1007.63,2559.9,-2246.09,-976.56,744.63
19/7/2026,16:29:31,988.53,102.05,-185.55,1010.95,927.89,305.17,280.76,830.08
19/7/2026,16:29:31,963.38,92.04,-188.23,985.9,1359.91,-1257.32,-500.49,-134.28
19/7/2026,16:29:31,995.85,113.77,-188.72,1019.94,1953.65,1623.53,1086.43,-24.41
19/7/2026,16:29:31,1008.54,106.2,-179.44,1029.87,872.53,634.77,-378.42,463.87
19/7/2026,16:29:31,986.82,101.32,-127.93,1000.22,2806.08,-1086.43,-244.14,2575.68
19/7/2026,16:29:31,1044.68,112.06,-111.82,1056.6,3050.81,2893.07,537.11,805.66
19/7/2026,16:29:31,995.36,90.33,-94.24,1003.88,2834.27,-2465.82,-1086.43,878.91
19/7/2026,16:29:31,975.59,85.69,-148.68,990.56,2905.45,-988.77,-231.93,-2722.17
19/7/2026,16:29:31,978.27,67.87,-192.87,999.41,2386.19,134.28,-891.11,-2209.47
19/7/2026,16:29:31,972.66,68.6,-173.1,990.32,1028.51,-280.76,36.62,988.77
19/7/2026,16:29:31,962.89,64.7,-151.12,976.82,1218.01,-488.28,-195.31,1098.63
19/7/2026,16:29:31,974.37,60.3,-124.76,984.17,1454.48,573.73,-219.73,1318.36
19/7/2026,16:29:31,968.26,75.93,-155.76,983.65,1762.64,-305.17,781.25,-1550.29
19/7/2026,16:29:31,986.08,74.95,-172.85,1003.92,1235.56,891.11,-48.83,-854.49
19/7/2026,16:29:31,999.51,72.51,-168.7,1016.24,713.25,671.39,-122.07,207.52
19/7/2026,16:29:31,1003.91,75.93,-168.21,1020.73,279.43,219.73,170.9,24.41
19/7/2026,16:29:31,1001.95,87.4,-148.93,1016.72,1126.36,-97.66,573.73,964.36
19/7/2026,16:29:31,1004.39,86.43,-162.11,1021.06,672.16,122.07,-48.83,-659.18
19/7/2026,16:29:31,976.81,70.31,-165.77,993.26,1607.9,-1379.39,-805.66,-183.11
19/7/2026,16:29:31,1018.31,67.87,-151.86,1031.81,2192.14,2075.2,-122.07,695.8
19/7/2026,16:29:31,961.43,65.43,-163.82,977.47,2909.01,-2844.24,-122.07,-598.14
19/7/2026,16:29:31,990.23,70.56,-190.92,1010.94,1994.12,1440.43,256.35,-1354.98
19/7/2026,16:29:31,950.93,72.27,-158.2,966.7,2558.41,-1965.33,85.45,1635.74
19/7/2026,16:29:31,1027.59,88.13,-167.72,1044.91,3943.12,3833.01,793.46,-476.07
19/7/2026,16:29:31,1016.85,81.3,-179.93,1035.84,881.95,-537.11,-341.8,-610.35
19/7/2026,16:29:31,983.89,77.64,-199.46,1006.9,1924.3,-1647.95,-183.11,-976.56
19/7/2026,16:29:31,1013.67,78.86,-177.98,1032.19,1837.27,1489.26,61.04,1074.22
19/7/2026,16:29:32,994.87,85.94,-186.77,1015.89,1096.33,-939.94,354,-439.45
19/7/2026,16:29:32,973.88,55.18,-180.18,991.94,1891.14,-1049.8,-1538.09,329.59
19/7/2026,16:29:32,1030.03,68.85,-186.28,1049,2905.71,2807.62,683.59,-305.18
19/7/2026,16:29:32,1053.96,72.27,-153.32,1067.5,2043.54,1196.29,170.9,1647.95
19/7/2026,16:29:32,1026.37,69.09,-98.14,1033.36,3088.5,-1379.39,-158.69,2758.79
19/7/2026,16:29:32,946.04,53.47,-108.15,953.71,4121.89,-4016.11,-781.25,-500.49
19/7/2026,16:29:32,991.21,75.44,-109.13,1000.05,2511.83,2258.3,1098.63,-48.83
19/7/2026,16:29:32,1016.11,79.83,-139.4,1028.73,1972.26,1245.12,219.73,-1513.67
19/7/2026,16:29:32,965.33,67.38,-125.24,975.75,2708.45,-2539.06,-622.56,708.01
19/7/2026,16:29:32,983.4,71.78,-120.12,993.3,964.35,903.32,219.73,256.35
19/7/2026,16:29:32,953.86,67.14,-141.85,966.68,1848.19,-1477.05,-231.93,-1086.43
19/7/2026,16:29:32,1037.11,78.86,-179.44,1055.47,4604.83,4162.6,585.94,-1879.88
19/7/2026,16:29:32,1012.45,67.63,-203.12,1034.84,1799.29,-1232.91,-561.52,-1184.08
19/7/2026,16:29:32,962.16,66.89,-208.5,986.76,2529.21,-2514.65,-36.62,-268.55
19/7/2026,16:29:32,985.11,67.87,-204.59,1008.41,1164.99,1147.46,48.83,195.31
19/7/2026,16:29:32,1029.05,77.64,-182.62,1048.01,2504.68,2197.27,488.28,1098.63
19/7/2026,16:29:32,1007.81,73,-176.76,1025.8,1125.83,-1062.01,-231.93,292.97
19/7/2026,16:29:32,1037.6,84.72,-199.71,1060.03,1969.23,1489.26,585.94,-1147.46
19/7/2026,16:29:32,1032.47,72.75,-237.06,1061.83,1977.8,-256.35,-598.14,-1867.68
19/7/2026,16:29:32,1097.9,78.61,-223.14,1123.1,3357.47,3271.48,292.97,695.8
19/7/2026,16:29:32,1060.06,55.18,-135.74,1070.14,4904.2,-1892.09,-1171.88,4370.12
19/7/2026,16:29:32,1020.51,53.47,-95.95,1026.4,2806.61,-1977.54,-85.45,1989.75
19/7/2026,16:29:32,1077.64,44.43,-126.95,1086,3281.26,2856.45,-451.66,-1550.29
19/7/2026,16:29:32,1082.03,36.13,-146,1092.43,1061.66,219.73,-415.04,-952.15
19/7/2026,16:29:32,1121.58,32.96,-140.14,1130.78,2005.41,1977.54,-158.69,292.97
19/7/2026,16:29:32,1097.66,32.23,-103.27,1102.97,2197.74,-1196.29,-36.62,1843.26
19/7/2026,16:29:32,1118.9,154.3,-178.22,1143.46,7240.51,1062.01,6103.52,-3747.56
19/7/2026,16:29:32,1145.26,-13.43,-141.36,1154.03,8687.03,1318.36,-8386.23,1843.26
19/7/2026,16:29:32,1099.12,54.93,-218.26,1121.93,5638.35,-2307.13,3417.97,-3845.21
19/7/2026,16:29:32,1148.44,15.38,-282.71,1182.82,4514.03,2465.82,-1977.54,-3222.66
19/7/2026,16:29:32,1149.66,62.5,-266.6,1181.82,2490.65,61.04,2355.96,805.66
19/7/2026,16:29:32,1035.16,24.9,-237.3,1062.3,6201.33,-5725.1,-1879.88,1464.84
19/7/2026,16:29:32,981.2,2.2,-227.54,1007.24,2967.34,-2697.76,-1135.25,488.28
19/7/2026,16:29:32,922.61,1.22,-168.21,937.82,4169.46,-2929.68,-48.83,2966.31
19/7/2026,16:29:32,868.41,-33.69,-164.79,884.55,3228.04,-2709.96,-1745.61,170.9
19/7/2026,16:29:32,889.89,-55.91,-162.35,906.31,1550.1,1074.22,-1110.84,122.07
19/7/2026,16:29:32,856.45,-38.09,-144.29,869.35,2099.25,-1672.36,891.11,903.32
19/7/2026,16:29:32,799.56,-50.54,-139.4,813.19,2921.8,-2844.24,-622.56,244.14
19/7/2026,16:29:32,834.96,-52,-183.11,856.38,2812.97,1770.02,-73.24,-2185.06
19/7/2026,16:29:32,870.85,-44.43,-195.8,893.7,1940.65,1794.44,378.42,-634.77
19/7/2026,16:29:32,833.74,-49.56,-223.88,864.7,2340.76,-1855.47,-256.35,-1403.81
19/7/2026,16:29:32,858.4,-31.98,-224.12,887.75,1514.17,1232.91,878.91,-12.21
19/7/2026,16:29:32,824.46,-9.77,-239.26,858.53,2164.68,-1696.78,1110.84,-756.84
19/7/2026,16:29:32,861.33,-4.64,-302,912.75,3647.66,1843.26,256.35,-3137.21
19/7/2026,16:29:32,960.94,4.64,-320.31,1012.93,5085.12,4980.47,463.87,-915.53
19/7/2026,16:29:32,884.03,10.01,-296.63,932.53,4032.36,-3845.22,268.55,1184.08
19/7/2026,16:29:32,853.03,24.41,-328.37,914.37,2332.47,-1550.29,720.21,-1586.91
19/7/2026,16:29:32,817.38,16.6,-406.25,912.92,4300.29,-1782.23,-390.62,-3894.04
19/7/2026,16:29:32,775.88,17.09,-398.68,872.48,2109.56,-2075.2,24.41,378.42
19/7/2026,16:29:32,797.12,13.92,-413.57,898.13,1306.72,1062.01,-158.69,-744.63
19/7/2026,16:29:33,809.57,3.66,-416.02,910.21,815.68,622.56,-512.7,-122.07
19/7/2026,16:29:33,761.72,-48.58,-408.69,865.8,3561.27,-2392.58,-2612.3,366.21
19/7/2026,16:29:33,765.14,-35.16,-389.4,859.25,1187.41,170.9,671.39,964.36
19/7/2026,16:29:33,888.92,-21.24,-409.42,978.9,6307.88,6188.96,695.8,-1000.98
19/7/2026,16:29:33,931.15,25.15,-432.37,1026.95,3340.02,2111.82,2319.34,-1147.46
19/7/2026,16:29:33,838.62,19.04,-417.24,936.88,4697.88,-4626.46,-305.18,756.84
19/7/2026,16:29:33,727.05,31.25,-408.2,834.39,5630.05,-5578.61,610.35,451.66
19/7/2026,16:29:33,707.52,48.34,-473.39,852.65,3508.09,-976.56,854.49,-3259.28
19/7/2026,16:29:33,779.3,36.38,-445.8,898.54,3891.08,3588.87,-598.14,1379.39
19/7/2026,16:29:33,759.28,30.03,-382.81,850.85,3319.86,-1000.98,-317.38,3149.41
19/7/2026,16:29:33,763.67,78.37,-302.73,825.22,4682.03,219.73,2416.99,4003.91
19/7/2026,16:29:33,837.16,146.97,-314.94,906.43,5063.52,3674.32,3430.18,-610.35
19/7/2026,16:29:33,1044.19,193.12,-363.28,1122.32,10877.48,10351.56,2307.13,-2416.99
19/7/2026,16:29:33,1192.14,237.79,-373.05,1271.58,7742.81,7397.46,2233.89,-488.28
19/7/2026,16:29:33,1242.68,244.38,-289.79,1299.21,4880.66,2526.86,329.59,4162.6
19/7/2026,16:29:33,1261.96,243.16,-201.66,1300.9,4511.44,964.36,-61.04,4406.74
19/7/2026,16:29:33,1252.93,255.62,-195.8,1293.64,823.05,-451.66,622.56,292.97
19/7/2026,16:29:33,1302,234.62,-273.44,1350.93,4710.73,2453.61,-1049.81,-3881.84
19/7/2026,16:29:33,1291.02,215.33,-278.56,1338.17,1139.05,-549.32,-964.35,-256.35
19/7/2026,16:29:33,1219.73,214.84,-217.77,1257.5,4684.53,-3564.45,-24.41,3039.55
19/7/2026,16:29:33,1058.84,167.24,-156.74,1083.36,8927.05,-8044.43,-2380.37,3051.76
19/7/2026,16:29:33,1044.68,151.61,-171.63,1069.48,1290.77,-708.01,-781.25,-744.63
19/7/2026,16:29:33,983.64,142.33,-166.5,1007.74,3097.44,-3051.76,-463.87,256.35
19/7/2026,16:29:33,970.7,123.05,-187.01,996.18,1549.19,-646.97,-964.36,-1025.39
19/7/2026,16:29:33,912.6,106.45,-192.38,938.71,3033.44,-2905.27,-830.08,-268.55
19/7/2026,16:29:33,953.13,104.74,-220.95,983.99,2480.58,2026.37,-85.45,-1428.22
19/7/2026,16:29:33,953.61,118.16,-221.92,986.2,673.6,24.41,671.39,-48.83
19/7/2026,16:29:33,952.39,100.83,-212.4,980.99,990.73,-61.04,-866.7,476.07
19/7/2026,16:29:33,993.9,117.68,-236.33,1028.36,2539.09,2075.19,842.28,-1196.29
19/7/2026,16:29:33,957.76,115.23,-246.83,995.75,1885.3,-1806.64,-122.07,-524.9
19/7/2026,16:29:33,944.58,120.12,-220.95,977.49,1472.55,-659.18,244.14,1293.95
19/7/2026,16:29:33,994.63,141.36,-218.99,1028.22,2720.22,2502.44,1062.01,97.66
19/7/2026,16:29:33,1029.3,151.86,-233.15,1066.24,1944.6,1733.4,524.9,-708.01
19/7/2026,16:29:33,991.46,137.94,-262.45,1034.84,2491.97,-1892.09,-695.8,-1464.84
19/7/2026,16:29:33,995.36,128.66,-250.24,1034.37,791.11,195.31,-463.87,610.35
19/7/2026,16:29:33,972.41,140.14,-203.12,1003.24,2682.6,-1147.46,573.73,2355.96
19/7/2026,16:29:33,977.29,127.2,-223.14,1010.48,1216.61,244.14,-646.97,-1000.98
19/7/2026,16:29:33,982.67,134.03,-269.53,1027.74,2359.72,268.55,341.8,-2319.34
19/7/2026,16:29:33,995.36,115.72,-247.56,1032.19,1564.64,634.77,-915.53,1098.63
19/7/2026,16:29:33,959.72,112.3,-213.13,989.49,2483.55,-1782.22,-170.9,1721.19
19/7/2026,16:29:33,986.33,91.06,-208.74,1012.28,1716.55,1330.57,-1062.01,219.73
19/7/2026,16:29:33,991.7,87.89,-223.88,1020.45,818.6,268.55,-158.69,-756.84
19/7/2026,16:29:33,956.79,85.45,-204.59,982.14,1998,-1745.61,-122.07,964.36
19/7/2026,16:29:33,995.61,80.57,-171.87,1013.54,2549.98,1940.92,-244.14,1635.74
19/7/2026,16:29:33,964.11,65.19,-134.77,975.66,2552.23,-1574.71,-769.04,1855.47
19/7/2026,16:29:33,952.88,71.53,-149.66,967.21,985.15,-561.52,317.38,-744.63
19/7/2026,16:29:33,1013.43,81.79,-174.07,1031.52,3304.21,3027.34,512.7,-1220.7
19/7/2026,16:29:33,969.48,73.97,-160.89,985.52,2327.03,-2197.27,-390.62,659.18
19/7/2026,16:29:33,972.9,72.27,-177.73,991.64,863.69,170.9,-85.45,-842.29
19/7/2026,16:29:33,1006.1,74.22,-194.58,1027.43,1864.16,1660.16,97.66,-842.29
19/7/2026,16:29:34,995.12,70.07,-189.94,1015.5,631.35,-549.32,-207.52,231.93
19/7/2026,16:29:34,962.4,70.56,-164.55,978.91,2070.74,-1635.74,24.41,1269.53
19/7/2026,16:29:34,954.59,76.9,-229.49,984.8,3285.85,-390.62,317.38,-3247.07
19/7/2026,16:29:34,965.33,60.55,-243.65,997.45,1207.76,537.11,-817.87,-708.01
19/7/2026,16:29:34,1051.51,88.87,-185.3,1071.41,5393.05,4309.08,1416.02,2917.48
19/7/2026,16:29:34,1003.66,93.51,-162.84,1021.08,2653.2,-2392.58,231.93,1123.05
19/7/2026,16:29:34,993.16,85.94,-176.76,1012.42,950.19,-524.9,-378.42,-695.8
19/7/2026,16:29:34,980.96,74.46,-161.13,996.89,1145.45,-610.35,-573.73,781.25
19/7/2026,16:29:34,974.61,78.61,-166.02,991.77,451,-317.38,207.52,-244.14
19/7/2026,16:29:34,975.83,88.62,-167.48,994.06,509.49,61.04,500.49,-73.24
19/7/2026,16:29:34,1035.64,85.94,-193.12,1056.99,3256.58,2990.72,-134.28,-1281.74
19/7/2026,16:29:34,1011.72,68.6,-169.68,1028.14,1885.62,-1196.29,-866.7,1171.88
19/7/2026,16:29:34,958.74,57.13,-162.11,974.03,2736.64,-2648.93,-573.73,378.42
19/7/2026,16:29:34,979.49,79.83,-171.87,997.66,1613.64,1037.6,1135.25,-488.28
19/7/2026,16:29:34,995.85,90.09,-209.96,1021.72,2134.97,817.87,512.7,-1904.3
19/7/2026,16:29:34,993.65,75.44,-213.13,1019.05,757.43,-109.86,-732.42,-158.69
19/7/2026,16:29:34,971.68,65.92,-212.65,996.86,1197.6,-1098.63,-476.07,24.41
19/7/2026,16:29:34,986.08,59.57,-162.84,1001.21,2611.65,720.21,-317.38,2490.24
19/7/2026,16:29:34,968.99,62.26,-165.04,984.92,871.92,-854.49,134.28,-109.86
19/7/2026,16:29:34,1024.66,74.22,-178.71,1042.77,2927.68,2783.2,598.14,-683.59
19/7/2026,16:29:34,998.54,64.45,-184.57,1017.49,1424.88,-1306.15,-488.28,-292.97
19/7/2026,16:29:34,998.05,75.2,-155.03,1012.81,1571.87,-24.41,537.11,1477.05
19/7/2026,16:29:34,981.93,77.39,-168.46,999.28,1054.48,-805.66,109.86,-671.39
19/7/2026,16:29:34,1005.86,85.21,-174.07,1024.36,1289.39,1196.29,390.62,-280.76
19/7/2026,16:29:34,1008.54,93.02,-183.35,1029.29,621.12,134.28,390.62,-463.87
19/7/2026,16:29:34,1008.3,109.13,-201.9,1034.09,1228.79,-12.21,805.66,-927.73
19/7/2026,16:29:34,999.02,98.14,-234.86,1030.94,1797.96,-463.87,-549.32,-1647.95
19/7/2026,16:29:34,967.04,80.81,-220.95,995.25,1947.43,-1599.12,-866.7,695.8
19/7/2026,16:29:34,998.78,77.88,-211.91,1023.98,1656.42,1586.91,-146.48,451.66
19/7/2026,16:29:34,969.73,84.47,-169.68,988.08,2584.29,-1452.63,329.59,2111.82
19/7/2026,16:29:34,960.94,67.14,-185.06,980.9,1239.24,-439.45,-866.7,-769.04
19/7/2026,16:29:34,968.75,66.65,-199.46,991.31,819.69,390.62,-24.41,-720.21
19/7/2026,16:29:34,958.74,47.36,-177,976.09,1562.6,-500.49,-964.36,1123.05
19/7/2026,16:29:34,957.76,58.59,-139.16,969.59,1974.26,-48.83,561.52,1892.09
19/7/2026,16:29:34,1019.29,61.28,-155.76,1032.94,3189.03,3076.17,134.28,-830.08
19/7/2026,16:29:34,1064.21,56.64,-121.58,1072.63,2831.85,2246.09,-231.93,1708.98
19/7/2026,16:29:34,932.13,164.06,-38.33,947.23,9475.69,-6604.01,5371.09,4162.6
19/7/2026,16:29:34,970.7,95.21,-166.26,989.43,7515.65,1928.71,-3442.38,-6396.48
19/7/2026,16:29:34,1014.65,52.98,-274.17,1052.37,6196.71,2197.27,-2111.82,-5395.51
19/7/2026,16:29:34,1071.78,57.37,-208.01,1093.28,4376.2,2856.45,219.73,3308.11
19/7/2026,16:29:34,1006.35,83.25,-90.09,1013.8,6865.83,-3271.48,1293.95,5896
19/7/2026,16:29:34,935.79,50.05,-103.27,942.8,3954.27,-3527.83,-1660.16,-659.18
19/7/2026,16:29:34,1011.96,39.06,-180.42,1028.66,5448.56,3808.59,-549.32,-3857.42
19/7/2026,16:29:34,1012.7,41.99,-166.75,1027.19,700.07,36.62,146.48,683.59
19/7/2026,16:29:34,913.09,42.48,-114.26,921.19,5629.72,-4980.47,24.41,2624.51
19/7/2026,16:29:34,1023.93,37.6,-113.53,1030.89,5547.49,5541.99,-244.14,36.62
19/7/2026,16:29:34,1047.61,89.84,-94.48,1055.69,3022.05,1184.08,2612.3,952.15
19/7/2026,16:29:34,1034.18,78.37,-69.58,1039.48,1526.51,-671.39,-573.73,1245.12
19/7/2026,16:29:34,1028.81,14.89,-60.06,1030.67,3220.55,-268.55,-3173.83,476.07
19/7/2026,16:29:34,1125.24,4.39,-214.11,1145.44,9102.51,4821.78,-524.9,-7702.64
19/7/2026,16:29:35,1093.02,7.32,-196.29,1110.53,1847.14,-1611.33,146.48,891.11
19/7/2026,16:29:35,876.95,17.58,-186.52,896.74,10826.4,-10803.22,512.7,488.28
19/7/2026,16:29:35,1063.48,84.47,-242.92,1094.13,10301.27,9326.17,3344.73,-2819.82
19/7/2026,16:29:35,991.94,55.42,-191.16,1011.71,4647.56,-3576.66,-1452.64,2587.89
19/7/2026,16:29:35,990.97,75.68,-180.18,1010.05,1153.55,-48.83,1013.18,549.32
19/7/2026,16:29:35,978.03,51.76,-184.81,996.68,1379.66,-646.97,-1196.29,-231.93
19/7/2026,16:29:35,959.23,55.66,-192.87,980.01,1041.11,-939.94,195.31,-402.83
19/7/2026,16:29:35,961.18,65.92,-188.48,981.7,566.28,97.66,512.7,219.73
19/7/2026,16:29:35,1011.72,87.4,-152.1,1026.81,3293.5,2526.86,1074.22,1818.85
19/7/2026,16:29:35,970.21,54.69,-176.51,987.66,2910.71,-2075.2,-1635.74,-1220.7
19/7/2026,16:29:35,985.11,58.11,-185.06,1004.02,875.34,744.63,170.9,-427.25
19/7/2026,16:29:35,965.58,57.37,-190.67,985.89,1016.78,-976.56,-36.62,-280.76
19/7/2026,16:29:35,994.14,59.08,-197.75,1015.34,1473.92,1428.22,85.45,-354
19/7/2026,16:29:35,982.42,50.05,-199.95,1003.81,747.92,-585.94,-451.66,-109.86
19/7/2026,16:29:35,1027.83,50.54,-164.55,1042.15,2879.02,2270.51,24.41,1770.02
19/7/2026,16:29:35,1012.45,64.21,-106.45,1020.05,3082.1,-769.04,683.59,2905.27
19/7/2026,16:29:35,1011.72,56.88,-112.3,1019.52,470.41,-36.62,-366.21,-292.97
19/7/2026,16:29:35,1023.19,52.49,-139.89,1034.05,1510.03,573.73,-219.73,-1379.39
19/7/2026,16:29:35,1015.38,51.51,-136.23,1025.77,434.17,-390.62,-48.83,183.11
19/7/2026,16:29:35,978.27,58.35,-119.38,987.26,2066.16,-1855.47,341.8,842.28
19/7/2026,16:29:35,994.87,50.29,-157.47,1008.51,2116.04,830.08,-402.83,-1904.3
19/7/2026,16:29:35,1004.15,57.86,-160.4,1018.53,616.31,463.87,378.42,-146.48
19/7/2026,16:29:35,1029.3,57.37,-166.75,1044.29,1296.99,1257.32,-24.41,-317.38
19/7/2026,16:29:35,957.28,44.68,-154.54,970.7,3707.18,-3601.07,-634.77,610.35
19/7/2026,16:29:35,974.61,58.84,-215.58,999.9,3250.49,866.7,708.01,-3051.76
19/7/2026,16:29:35,1013.92,45.17,-220.21,1038.54,2093.71,1965.33,-683.59,-231.93
19/7/2026,16:29:35,959.72,51.03,-175.29,976.93,3531.95,-2709.96,292.97,2246.09
19/7/2026,16:29:35,906.49,54.93,-146.24,919.86,3038.08,-2661.13,195.31,1452.64
19/7/2026,16:29:35,1050.05,62.74,-181.64,1067.49,7403.07,7177.73,390.62,-1770.02
19/7/2026,16:29:35,1033.94,55.91,-183.84,1051.64,882.04,-805.66,-341.8,-109.86
19/7/2026,16:29:35,833.74,55.18,-90.82,840.49,11037.55,-10009.77,-36.62,4650.88
19/7/2026,16:29:35,920.17,49.56,-177.73,938.48,6134.94,4321.29,-280.76,-4345.7
19/7/2026,16:29:35,1119.63,77.15,-226.56,1144.92,10359.87,9973.14,1379.39,-2441.41
19/7/2026,16:29:35,1099.85,72.27,-281.25,1137.54,2917.89,-988.77,-244.14,-2734.38
19/7/2026,16:29:35,904.79,62.5,-250,940.77,9889.84,-9753.42,-488.28,1562.5
19/7/2026,16:29:35,1050.54,90.58,-239.5,1081.29,7440.11,7287.6,1403.81,524.9
19/7/2026,16:29:35,1034.18,85.45,-171.87,1051.84,3488.29,-817.87,-256.35,3381.35
19/7/2026,16:29:35,965.09,77.39,-136.47,977.76,3902.49,-3454.59,-402.83,1770.02
19/7/2026,16:29:35,972.17,86.67,-144.78,986.7,716.06,354,463.87,-415.04
19/7/2026,16:29:35,975.83,72.75,-208.25,1000.45,3254.36,183.11,-695.8,-3173.83
19/7/2026,16:29:35,1026.86,72.27,-203.86,1049.39,2560.83,2551.27,-24.41,219.73
19/7/2026,16:29:35,957.76,65.67,-162.35,973.64,4043.42,-3454.59,-329.59,2075.2
19/7/2026,16:29:35,965.82,70.8,-140.62,978.57,1186.72,402.84,256.35,1086.43
19/7/2026,16:29:35,1017.82,81.79,-169.43,1035.06,3022.76,2600.09,549.32,-1440.43
19/7/2026,16:29:35,1013.92,74.46,-199.46,1036.03,1557.77,-195.31,-366.21,-1501.46
19/7/2026,16:29:35,1010.5,78.37,-191.89,1031.54,458.86,-170.9,195.31,378.42
19/7/2026,16:29:35,981.2,83.98,-162.11,998.04,2107.72,-1464.85,280.76,1489.26
19/7/2026,16:29:35,993.41,79.35,-178.22,1012.38,1037.02,610.35,-231.93,-805.66
19/7/2026,16:29:35,1009.03,81.05,-196.04,1031.09,1188.17,781.25,85.45,-891.11
19/7/2026,16:29:35,997.07,72.27,-198.24,1019.15,750.31,-598.14,-439.45,-109.86
19/7/2026,16:29:36,949.46,57.86,-179.44,968,2658.64,-2380.37,-720.21,939.94
19/7/2026,16:29:36,987.06,64.45,-186.28,1006.55,1938.92,1879.88,329.59,-341.8
19/7/2026,16:29:36,968.26,54.69,-199.71,990.15,1254.06,-939.94,-488.28,-671.39
19/7/2026,16:29:36,977.78,51.51,-216.55,1002.8,980.44,476.07,-158.69,-842.29
19/7/2026,16:29:36,989.5,62.01,-219.48,1015.45,800.19,585.93,524.9,-146.48
19/7/2026,16:29:36,985.35,61.52,-187.26,1004.87,1624.82,-207.52,-24.41,1611.33
19/7/2026,16:29:36,979.49,73.97,-202.64,1002.97,1031.91,-292.97,622.56,-769.04
19/7/2026,16:29:36,1005.86,62.5,-217.77,1031.06,1624.82,1318.36,-573.73,-756.84
19/7/2026,16:29:36,1010.01,77.64,-182.62,1029.32,1925.04,207.52,756.84,1757.81
19/7/2026,16:29:36,994.14,78.37,-185.06,1014.25,803.63,-793.46,36.62,-122.07
19/7/2026,16:29:36,992.43,60.79,-182.86,1010.97,889.86,-85.45,-878.91,109.86
19/7/2026,16:29:36,1001.95,72.75,-173.34,1019.44,900.6,476.08,598.14,476.07
19/7/2026,16:29:36,974.37,63.72,-225.83,1002.22,2999.13,-1379.39,-451.66,-2624.51
19/7/2026,16:29:36,999.02,59.81,-211.43,1022.9,1441.15,1232.91,-195.31,720.22
19/7/2026,16:29:36,992.68,59.33,-182.86,1011.12,1463.27,-317.38,-24.41,1428.22
19/7/2026,16:29:36,956.54,54.69,-172.36,973.49,1895.59,-1806.64,-231.93,524.9
19/7/2026,16:29:36,977.54,56.15,-186.52,996.76,1268.35,1049.8,73.24,-708.01
19/7/2026,16:29:36,1025.39,60.3,-186.52,1043.96,2401.56,2392.58,207.52,0
19/7/2026,16:29:36,968.51,46.39,-154.3,981.82,3342.19,-2844.24,-695.8,1611.33
19/7/2026,16:29:36,979.74,48.34,-141.11,991.03,871.41,561.52,97.66,659.18
19/7/2026,16:29:36,1010.99,47.12,-136.23,1021.21,1582.64,1562.5,-61.04,244.14
19/7/2026,16:29:36,1002.2,56.15,-177.25,1019.3,2145.42,-439.45,451.66,-2050.78
19/7/2026,16:29:36,1017.58,70.8,-183.84,1036.47,1111.98,769.04,732.42,-329.59
19/7/2026,16:29:36,1010.99,47.61,-205.32,1032.72,1614.75,-329.59,-1159.67,-1074.22
19/7/2026,16:29:36,992.92,47.85,-163.33,1007.4,2285.72,-903.32,12.21,2099.61
19/7/2026,16:29:36,979.98,40.53,-139.89,990.74,1387.79,-646.97,-366.21,1171.88
19/7/2026,16:29:36,942.14,35.16,-150.39,954.71,1981.83,-1892.09,-268.55,-524.9
19/7/2026,16:29:36,963.87,55.91,-188.72,983.76,2435.14,1086.43,1037.6,-1916.5
19/7/2026,16:29:36,963.62,44.19,-218.51,989.07,1600.43,-12.21,-585.94,-1489.26
19/7/2026,16:29:36,1003.91,67.63,-219.97,1029.95,2331.42,2014.16,1171.88,-73.24
19/7/2026,16:29:36,1018.55,82.76,-207.76,1042.82,1217.28,732.42,756.84,610.35
19/7/2026,16:29:36,979.25,72.51,-179.69,998.23,2469.02,-1965.33,-512.7,1403.81
19/7/2026,16:29:36,990.48,78.12,-227.29,1019.22,2461.77,561.52,280.76,-2380.37
19/7/2026,16:29:36,1013.43,76.66,-208.25,1037.44,1492.86,1147.46,-73.24,952.15
19/7/2026,16:29:36,978.27,85.94,-178.47,998.12,2350.1,-1757.81,463.87,1489.26
19/7/2026,16:29:36,1036.87,79.35,-197.75,1058.53,3101.88,2929.69,-329.59,-964.36
19/7/2026,16:29:36,1001.22,60.79,-175.78,1018.35,2289.98,-1782.23,-927.73,1098.63
19/7/2026,16:29:36,975.59,65.43,-178.71,993.98,1310.76,-1281.74,231.93,-146.48
19/7/2026,16:29:36,1024.66,64.45,-184.08,1043.06,2468.75,2453.61,-48.83,-268.55
19/7/2026,16:29:36,998.29,46.14,-157.96,1011.76,2069.37,-1318.36,-915.53,1306.15
19/7/2026,16:29:36,960.94,33.2,-167.97,976.07,2038.93,-1867.67,-646.97,-500.49
19/7/2026,16:29:36,1005.62,43.7,-180.66,1022.65,2380.9,2233.88,524.9,-634.77
19/7/2026,16:29:36,985.6,62.01,-164.55,1001.16,1577.73,-1000.98,915.53,805.66
19/7/2026,16:29:36,989.99,63.96,-165.28,1005.73,243.22,219.73,97.66,-36.62
19/7/2026,16:29:36,909.91,40.04,-154.3,923.77,4214.74,-4003.9,-1196.29,549.32
19/7/2026,16:29:36,973.63,45.41,-179.69,991.12,3440.15,3186.03,268.55,-1269.53
19/7/2026,16:29:36,991.21,80.57,-179.93,1010.63,1965.33,878.91,1757.81,-12.21
19/7/2026,16:29:36,987.79,93.26,-150.88,1003.59,1594.46,-170.9,634.77,1452.64
19/7/2026,16:29:36,1069.58,104.25,-172.12,1088.34,4260.57,4089.36,549.32,-1062.01
19/7/2026,16:29:36,1086.91,113.28,-223.14,1115.35,2732.06,866.7,451.66,-2551.27
19/7/2026,16:29:37,1021.97,105.47,-212.4,1049.13,3314.29,-3247.07,-390.63,537.11
19/7/2026,16:29:37,1020.02,193.85,-56.88,1039.83,8944.32,-97.66,4418.95,7775.88
19/7/2026,16:29:37,869.63,38.82,-83.74,874.51,10882.63,-7519.53,-7751.46,-1342.77
19/7/2026,16:29:37,1099.61,218.99,-175.78,1134.9,15315.5,11499.02,9008.79,-4602.05
19/7/2026,16:29:37,766.11,70.31,-24.41,769.72,19763.47,-16674.8,-7434.08,7568.36
19/7/2026,16:29:37,942.63,255.62,-85.69,980.42,13157.63,8825.68,9265.14,-3063.96
19/7/2026,16:29:37,850.34,121.58,-211.43,884.63,10282.28,-4614.26,-6701.66,-6286.62
19/7/2026,16:29:37,706.79,99.85,-359.86,799.39,10381.93,-7177.73,-1086.43,-7421.88
19/7/2026,16:29:37,1060.06,73.97,-598.88,1219.77,21365.74,17663.57,-1293.95,-11950.68
19/7/2026,16:29:37,1023.68,128.42,-574.95,1181.09,3485.62,-1818.85,2722.17,1196.29
19/7/2026,16:29:37,1214.6,251.46,-286.38,1272.99,18362,9545.9,6152.34,14428.71
19/7/2026,16:29:37,1277.59,346.68,-416.5,1387.77,8655.4,3149.41,4760.74,-6506.35
19/7/2026,16:29:37,1095.7,408.2,-208.74,1187.76,14145.05,-9094.24,3076.17,10388.18
19/7/2026,16:29:37,749.51,112.06,-181.4,779.25,22819.76,-17309.57,-14807.13,1367.19
19/7/2026,16:29:37,986.82,62.99,-374.02,1057.2,15477.95,11865.23,-2453.61,-9631.35
19/7/2026,16:29:37,987.3,118.16,-440.67,1087.62,4326.34,24.41,2758.79,-3332.52
19/7/2026,16:29:37,1132.81,182.13,-363.04,1203.42,8844.7,7275.39,3198.24,3881.84
19/7/2026,16:29:37,923.58,-4.15,-170.41,939.18,16998.65,-10461.43,-9313.96,9631.35
19/7/2026,16:29:37,830.57,228.52,-18.31,861.62,14656.06,-4650.88,11633.3,7604.98
19/7/2026,16:29:37,872.31,191.65,-92.53,897.9,4639.6,2087.4,-1843.26,-3710.94
19/7/2026,16:29:37,1021.97,135.74,-309.33,1076.35,13465.16,7482.91,-2795.41,-10839.84
19/7/2026,16:29:37,969.24,130.37,-290.53,1020.21,2812.1,-2636.72,-268.55,939.94
19/7/2026,16:29:37,1001.46,234.86,-316.41,1076.2,5618.47,1611.33,5224.61,-1293.95
19/7/2026,16:29:37,901.37,54.2,-400.39,987.78,11148.14,-5004.88,-9033.2,-4199.22
19/7/2026,16:29:37,786.38,176.76,-160.16,821.76,14659.12,-5749.51,6127.93,12011.72
19/7/2026,16:29:37,777.1,148.19,-163.09,807.74,1508.79,-463.87,-1428.22,-146.48
19/7/2026,16:29:37,1298.58,147.95,-356.93,1354.85,27817.39,26074.22,-12.21,-9692.38
19/7/2026,16:29:37,1156.74,187.99,-39.31,1172.57,17507.87,-7092.29,2001.95,15881.35
19/7/2026,16:29:37,867.43,330.08,-60.06,930.05,16149.19,-14465.33,7104.49,-1037.6
19/7/2026,16:29:37,974.12,276.61,-199.71,1032.14,9184.64,5334.47,-2673.34,-6982.42
19/7/2026,16:29:37,1032.96,184.57,-336.18,1101.86,8740.53,2941.89,-4602.05,-6823.73
19/7/2026,16:29:37,811.77,61.28,-558.59,987.29,16851.81,-11059.57,-6164.55,-11120.61
19/7/2026,16:29:37,889.4,147.22,-509.28,1035.41,6293.81,3881.83,4296.88,2465.82
19/7/2026,16:29:37,894.04,176.27,-256.35,946.62,12731.75,231.94,1452.64,12646.48
19/7/2026,16:29:37,581.05,192.38,-242.92,658.52,15684.52,-15649.41,805.66,671.39
19/7/2026,16:29:37,528.08,171.14,-474.37,730.19,11918.98,-2648.93,-1062.01,-11572.26
19/7/2026,16:29:37,752.44,98.14,-1009.52,1262.91,29242.98,11218.26,-3649.9,-26757.81
19/7/2026,16:29:37,883.54,101.81,-896.73,1262.99,8649.25,6555.17,183.11,5639.65
19/7/2026,16:29:37,680.91,128.42,-778.32,1042.07,11809.98,-10131.83,1330.57,5920.41
19/7/2026,16:29:37,655.27,235.35,-676.27,970.63,7501.05,-1281.74,5346.68,5102.54
19/7/2026,16:29:37,901.86,222.9,-667.48,1143.92,12352.63,12329.1,-622.56,439.45
19/7/2026,16:29:37,928.71,271.24,-639.4,1159.7,3100.9,1342.77,2416.99,1403.81
19/7/2026,16:29:37,862.06,271.48,-520.75,1043.09,6804.54,-3332.52,12.21,5932.62
19/7/2026,16:29:37,866.46,286.13,-421.63,1005.18,5014.7,219.73,732.42,4956.06
19/7/2026,16:29:37,942.63,228.52,-383.79,1043.1,5136.61,3808.59,-2880.86,1892.09
19/7/2026,16:29:37,964.84,250.49,-444.09,1091.28,3395.88,1110.84,1098.63,-3015.14
19/7/2026,16:29:37,896.24,220.46,-318.12,976.24,7327.74,-3430.18,-1501.46,6298.83
19/7/2026,16:29:37,841.8,205.32,-297.36,916.08,3009.92,-2722.17,-756.84,1037.6
19/7/2026,16:29:37,969.73,232.18,-406.98,1076.99,8529.89,6396.49,1342.77,-5480.96
19/7/2026,16:29:37,985.6,271.73,-533.45,1153.17,6672.6,793.45,1977.54,-6323.24
19/7/2026,16:29:38,1035.16,412.84,-486.57,1216.03,7836.85,2478.03,7055.66,2343.75
19/7/2026,16:29:38,879.39,400.88,-347.66,1027.08,10452.57,-7788.09,-598.14,6945.8
19/7/2026,16:29:38,890.38,381.84,-352.54,1030.95,1126.03,549.31,-952.15,-244.14
19/7/2026,16:29:38,1093.75,392.58,-421.39,1236.11,10748.77,10168.46,537.11,-3442.38
19/7/2026,16:29:38,981.2,323.97,-200.44,1052.56,12863.84,-5627.44,-3430.18,11047.36
19/7/2026,16:29:38,1182.62,377.2,-400.88,1304.44,14454.85,10070.8,2661.13,-10021.97
19/7/2026,16:29:38,1069.58,352.05,-435.55,1207.33,6043.92,-5651.86,-1257.32,-1733.4
19/7/2026,16:29:38,1093.99,390.14,-282.47,1195.33,7981.06,1220.7,1904.3,7653.81
19/7/2026,16:29:38,926.76,439.45,-321.53,1074.89,8933.92,-8361.82,2465.82,-1953.13
19/7/2026,16:29:38,975.83,355.96,-455.32,1134.14,8258.21,2453.61,-4174.8,-6689.45
19/7/2026,16:29:38,1017.09,303.22,-498.29,1172.48,3977.94,2062.99,-2636.72,-2148.44
19/7/2026,16:29:38,1031.25,359.13,-81.79,1095.05,21023.9,708.01,2795.41,20825.2
19/7/2026,16:29:38,708.01,346.68,-107.67,795.65,16225.77,-16162.11,-622.56,-1293.95
19/7/2026,16:29:38,653.32,234.37,-72.75,697.89,6484.97,-2734.38,-5615.24,1745.61
19/7/2026,16:29:38,895.26,311.52,-375,1019.4,19738.36,12097.17,3857.42,-15112.3
19/7/2026,16:29:38,927.25,313.72,-483.64,1091.84,5663.68,1599.12,109.86,-5432.13
19/7/2026,16:29:38,796.14,268.8,-400.15,930.71,8089.76,-6555.18,-2246.09,4174.81
19/7/2026,16:29:38,980.22,341.8,-241.21,1065.76,12696,9204.1,3649.9,7946.78
19/7/2026,16:29:38,711.43,389.4,-76.66,814.64,15937.08,-13439.94,2380.37,8227.54
19/7/2026,16:29:38,485.11,322.02,-139.89,598.83,12222.8,-11315.92,-3369.14,-3161.62
19/7/2026,16:29:38,797.85,296.87,-315.92,908.02,17987.93,15637.21,-1257.32,-8801.27
19/7/2026,16:29:38,882.32,301.27,-234.13,961.29,5883.04,4223.63,219.73,4089.36
19/7/2026,16:29:38,822.27,253.66,-162.84,875.78,5233.46,-3002.93,-2380.37,3564.45
19/7/2026,16:29:38,798.34,247.31,-184.57,855.91,1646.86,-1196.29,-317.38,-1086.43
19/7/2026,16:29:38,697.27,211.91,-128.17,739.94,6051.81,-5053.71,-1770.02,2819.82
19/7/2026,16:29:38,648.93,130.86,-111.57,671.32,4791.19,-2416.99,-4052.73,830.08
19/7/2026,16:29:38,799.56,171.39,-83.25,821.95,7927.06,7531.74,2026.37,1416.02
19/7/2026,16:29:38,646.73,215.58,-220.7,716.55,10512.27,-7641.6,2209.47,-6872.56
19/7/2026,16:29:38,483.89,292.72,-337.16,658.41,10727.43,-8142.09,3857.42,-5822.75
19/7/2026,16:29:38,471.44,272.71,-429.93,693.87,4786.11,-622.56,-1000.98,-4638.67
19/7/2026,16:29:38,651.37,108.64,-493.9,824.63,12588.03,8996.58,-8203.12,-3198.24
19/7/2026,16:29:38,806.4,152.59,-265.87,862.7,13960.81,7751.46,2197.27,11401.37
19/7/2026,16:29:38,895.02,227.05,-181.4,941.02,7164.91,4431.15,3723.14,4223.63
19/7/2026,16:29:38,1297.36,292.48,-300.54,1363.46,21234.17,20117.19,3271.48,-5957.03
19/7/2026,16:29:38,1479.98,291.99,-389.89,1558.08,10165.34,9130.86,-24.41,-4467.77
19/7/2026,16:29:38,1359.13,376.71,-370.85,1458.31,7440.46,-6042.48,4235.84,952.15
19/7/2026,16:29:38,1006.35,414.31,-409.42,1162.76,17843.59,-17639.16,1879.88,-1928.71
19/7/2026,16:29:38,970.95,416.99,-589.6,1210.06,9182.01,-1770.02,134.28,-9008.79
19/7/2026,16:29:38,1064.21,403.56,-564.7,1270.55,4872.93,4663.09,-671.39,1245.12
19/7/2026,16:29:38,1089.6,314.45,-336.18,1182.85,12329.33,1269.53,-4455.57,11425.78
19/7/2026,16:29:38,1030.76,286.13,-167.72,1082.81,9033.51,-2941.89,-1416.02,8422.85
19/7/2026,16:29:38,1033.69,267.33,-156.49,1079.11,1104.65,146.48,-939.94,561.52
19/7/2026,16:29:38,951.42,205.81,-269.78,1010.11,7646.41,-4113.77,-3076.17,-5664.06
19/7/2026,16:29:38,1033.69,214.6,-333.5,1107.15,5221.79,4113.77,439.45,-3186.04
19/7/2026,16:29:38,923.83,203.86,-300.54,992.64,5760.13,-5493.16,-537.11,1647.95
19/7/2026,16:29:38,981.93,211.67,-246.58,1034.31,3983.85,2905.27,390.62,2697.75
19/7/2026,16:29:38,1028.32,259.52,-220.7,1083.28,3574.64,2319.34,2392.58,1293.95
19/7/2026,16:29:38,1002.44,264.65,-198.24,1055.57,1732.41,-1293.95,256.35,1123.05
19/7/2026,16:29:38,913.57,254.88,-280.52,989.08,6074.95,-4443.36,-488.28,-4113.77
19/7/2026,16:29:38,940.67,275.39,-349.85,1040.72,3860.84,1354.98,1025.39,-3466.8
19/7/2026,16:29:39,927.98,267.58,-353.03,1028.29,762.04,-634.77,-390.62,-158.69
19/7/2026,16:29:39,932.37,285.4,-197.51,994.88,7829.86,219.73,891.11,7775.88
19/7/2026,16:29:39,978.76,318.36,-96.92,1033.79,5778.31,2319.34,1647.95,5029.3
19/7/2026,16:29:39,959.47,322.27,-137.45,1021.44,2252.62,-964.35,195.31,-2026.37
19/7/2026,16:29:39,1029.05,242.92,-127.2,1064.96,5301.48,3479,-3967.29,512.7
19/7/2026,16:29:39,997.56,287.84,-208.01,1058.89,4883.7,-1574.71,2246.09,-4040.53
19/7/2026,16:29:39,984.86,249.76,-244.63,1045.07,2716.99,-634.77,-1904.3,-1831.06
19/7/2026,16:29:39,839.84,214.84,-148.44,879.5,8874.45,-7250.98,-1745.6,4809.57
19/7/2026,16:29:39,862.06,215.33,-149.17,900.98,1111.71,1110.84,24.41,-36.62
19/7/2026,16:29:39,1032.47,222.41,-229,1080.7,9415.84,8520.51,354,-3991.7
19/7/2026,16:29:39,1022.46,209.96,-226.81,1068.15,806.31,-500.49,-622.56,109.86
19/7/2026,16:29:39,987.55,194.58,-231.69,1032.86,1923.07,-1745.61,-769.04,-244.14
19/7/2026,16:29:39,898.44,222.17,-214.36,950,4744.04,-4455.56,1379.39,866.7
19/7/2026,16:29:39,904.05,246.58,-243.16,968.11,1908.87,280.76,1220.7,-1440.43
19/7/2026,16:29:39,1077.64,281.25,-264.89,1144.8,8917.03,8679.2,1733.4,-1086.43
19/7/2026,16:29:39,1024.17,256.1,-230.96,1080.67,3406.86,-2673.34,-1257.32,1696.78
19/7/2026,16:29:39,1039.79,279.79,-133.54,1085.03,5072.99,781.25,1184.08,4870.61
19/7/2026,16:29:39,963.38,234.86,-166.26,1005.44,4724.31,-3820.8,-2246.09,-1635.74
19/7/2026,16:29:39,914.55,236.33,-231.2,972.48,4063.17,-2441.41,73.24,-3247.07
19/7/2026,16:29:39,1002.69,260.5,-299.56,1078.41,5706.34,4406.74,1208.5,-3417.97
19/7/2026,16:29:39,1074.95,280.52,-254.15,1139.65,4383.26,3613.28,1000.98,2270.51
19/7/2026,16:29:39,1099.61,282.47,-186.04,1150.45,3623.37,1232.91,97.66,3405.76
19/7/2026,16:29:39,1023.68,273.19,-166.26,1072.47,3950.37,-3796.39,-463.87,988.77
19/7/2026,16:29:39,973.39,270.51,-226.56,1035.37,3928.43,-2514.65,-134.28,-3015.14
19/7/2026,16:29:39,1087.65,290.53,-250.73,1153.36,5924.49,5712.89,1000.98,-1208.5
19/7/2026,16:29:39,1015.38,321.29,-192.38,1082.24,4892.16,-3613.28,1538.09,2917.48
19/7/2026,16:29:39,990.23,358.15,-183.35,1068.86,2276.5,-1257.32,1843.26,451.66
19/7/2026,16:29:39,1083.5,367.68,-189.7,1159.8,4698.06,4663.09,476.07,-317.38
19/7/2026,16:29:39,965.09,367.92,-197.27,1051.51,5932.5,-5920.41,12.21,-378.42
19/7/2026,16:29:39,1064.94,371.09,-205.08,1146.24,5010.45,4992.68,158.69,-390.62
19/7/2026,16:29:39,1161.13,364.99,-205.81,1234.43,4819.38,4809.57,-305.18,-36.62
19/7/2026,16:29:39,1118.9,354,-224.61,1194.86,2375.92,-2111.82,-549.32,-939.94
19/7/2026,16:29:39,961.67,327.39,-222.66,1039.99,7973.73,-7861.33,-1330.57,97.66
19/7/2026,16:29:39,875.73,266.85,-168.95,930.94,5902.55,-4296.88,-3027.34,2685.55
19/7/2026,16:29:39,782.96,327.88,-346.68,916.91,10478.75,-4638.67,3051.76,-8886.72
19/7/2026,16:29:39,880.13,429.44,-204.59,1000.45,9993.26,4858.4,5078.13,7104.49
19/7/2026,16:29:39,763.18,265.14,-179.44,827.62,10161.79,-5847.17,-8215.33,1257.32
19/7/2026,16:29:39,776.61,338.87,-203.61,871.44,3937.22,671.39,3686.52,-1208.5
19/7/2026,16:29:39,782.47,353.76,-248.54,893.97,2384.37,292.97,744.63,-2246.09
19/7/2026,16:29:39,752.93,359.37,-299.8,886.53,2971.85,-1477.05,280.76,-2563.48
19/7/2026,16:29:39,707.76,368.16,-345.21,869.28,3232.37,-2258.3,439.45,-2270.51
19/7/2026,16:29:39,705.32,317.63,-369.63,857.32,2808.92,-122.07,-2526.86,-1220.7
19/7/2026,16:29:39,684.57,407.23,-291.02,848.03,6049.54,-1037.6,4479.98,3930.66
19/7/2026,16:29:39,620.36,409.42,-285.64,796.28,3223.53,-3210.45,109.86,268.55
19/7/2026,16:29:39,677.98,450.93,-258.79,854.38,3795.9,2880.86,2075.2,1342.77
19/7/2026,16:29:39,624.02,395.51,-208.5,767.66,4613,-2697.75,-2771,2514.65
19/7/2026,16:29:39,746.83,416.5,-303.22,907.29,7825.35,6140.14,1049.8,-4736.33
19/7/2026,16:29:39,763.67,474.37,-261.72,936.33,3658.65,842.29,2893.07,2075.2
19/7/2026,16:29:39,649.17,489.99,-313.72,871.74,6336.21,-5725.1,781.25,-2600.1
19/7/2026,16:29:39,529.05,435.06,-355.71,771.82,6929.82,-6005.86,-2746.58,-2099.61
19/7/2026,16:29:40,569.58,395.75,-361.08,781.94,2835.63,2026.37,-1965.33,-268.55
19/7/2026,16:29:40,569.58,418.21,-292.72,764.86,3597.74,0,1123.05,3417.97
19/7/2026,16:29:40,681.15,467.04,-259.03,865.56,6318.16,5578.61,2441.41,1684.57
19/7/2026,16:29:40,788.57,489.01,-300.05,975.2,5853.32,5371.09,1098.63,-2050.78
19/7/2026,16:29:40,708.74,491.21,-344.48,928.58,4569.64,-3991.7,109.86,-2221.68
19/7/2026,16:29:40,741.94,490.72,-361.33,960.13,1861.76,1660.16,-24.41,-842.29
19/7/2026,16:29:40,794.43,495.12,-375,1008.41,2720.96,2624.51,219.73,-683.59
19/7/2026,16:29:40,672.36,475.59,-361.33,899.34,6218.83,-6103.52,-976.56,683.59
19/7/2026,16:29:40,620.61,479.49,-359.86,862.88,2596.28,-2587.89,195.31,73.24
19/7/2026,16:29:40,714.36,456.54,-375.73,927.31,4890.7,4687.5,-1147.46,-793.46
19/7/2026,16:29:40,787.6,458.74,-400.15,995.42,3861.77,3662.11,109.86,-1220.7
19/7/2026,16:29:40,925.05,471.92,-442.87,1128.97,7227.04,6872.56,659.18,-2136.23
19/7/2026,16:29:40,1068.36,424.07,-444.34,1232.34,7554.77,7165.53,-2392.58,-73.24
19/7/2026,16:29:40,1225.1,445.8,-406.74,1365.66,8132.13,7836.91,1086.43,1879.88
19/7/2026,16:29:40,1133.3,443.36,-396,1279.75,4622.78,-4589.84,-122.07,537.11
19/7/2026,16:29:40,1082.52,464.84,-493.9,1277.44,5618.01,-2539.06,1074.22,-4895.02
19/7/2026,16:29:40,1032.71,485.6,-466.31,1232.78,3029.95,-2490.23,1037.6,1379.4
19/7/2026,16:29:40,967.77,510.5,-335.21,1144.36,7420.52,-3247.07,1245.12,6555.17
19/7/2026,16:29:40,806.64,420.17,-314.94,962.49,9291.7,-8056.64,-4516.6,1013.18
19/7/2026,16:29:40,950.68,295.65,-427.73,1083.59,11065.01,7202.15,-6225.58,-5639.65
19/7/2026,16:29:40,872.8,285.4,-410.89,1006.02,4016.95,-3894.05,-512.7,842.29
19/7/2026,16:29:40,905.76,317.38,-437.26,1054.67,2647.83,1647.95,1599.12,-1318.36
19/7/2026,16:29:40,992.19,332.03,-422.12,1128.21,4447.78,4321.29,732.42,756.84
19/7/2026,16:29:40,897.22,271.97,-387.7,1014.53,5876.11,-4748.54,-3002.93,1721.19
19/7/2026,16:29:40,963.13,305.18,-403.56,1087.95,3774.74,3295.9,1660.16,-793.46
19/7/2026,16:29:40,834.72,270.75,-416.75,971.46,6680.19,-6420.9,-1721.19,-659.18
19/7/2026,16:29:40,813.48,268.55,-381.84,937.9,2046.23,-1062.01,-109.86,1745.6
19/7/2026,16:29:40,802.49,265.87,-391.6,931.68,747.13,-549.32,-134.28,-488.28
19/7/2026,16:29:40,943.36,307.62,-419.43,1077.26,7476.9,7043.45,2087.4,-1391.6
19/7/2026,16:29:40,955.08,290.04,-367.92,1063.8,2783.87,585.94,-878.91,2575.68
19/7/2026,16:29:40,906.98,266.36,-366.94,1014.01,2680.94,-2404.79,-1184.08,48.83
19/7/2026,16:29:40,823.97,250.49,-377.44,940.29,4258.04,-4150.39,-793.46,-524.9
19/7/2026,16:29:40,804.2,236.08,-384.52,922.13,1273.46,-988.77,-720.22,-354
19/7/2026,16:29:40,813.72,212.89,-353.76,912.47,1984.23,476.07,-1159.67,1538.09
19/7/2026,16:29:40,999.51,318.6,-360.6,1109.31,10693.48,9289.55,5285.64,-341.8
19/7/2026,16:29:40,991.94,320.31,-388.18,1112.31,1432.91,-378.42,85.45,-1379.39
19/7/2026,16:29:40,903.81,287.6,-418.95,1036.87,4945.77,-4406.74,-1635.74,-1538.08
19/7/2026,16:29:40,872.56,298.83,-393.8,1002.86,2082.68,-1562.5,561.52,1257.32
19/7/2026,16:29:40,810.06,290.53,-365.23,934.88,3460.88,-3125,-415.04,1428.22
19/7/2026,16:29:40,828.61,286.38,-305.66,928.46,3126.55,927.73,-207.52,2978.52
19/7/2026,16:29:40,890.14,268.07,-344.24,991.31,3744.46,3076.17,-915.53,-1928.71
19/7/2026,16:29:40,1130.62,241.46,-351.32,1208.31,12102.5,12023.93,-1330.57,-354
19/7/2026,16:29:40,993.65,270.26,-402.34,1105.56,7448.55,-6848.14,1440.43,-2551.27
19/7/2026,16:29:40,861.33,244.38,-353.03,962.41,7178.35,-6616.21,-1293.95,2465.82
19/7/2026,16:29:40,950.2,262.94,-301.76,1031.05,5213.02,4443.36,927.73,2563.48
19/7/2026,16:29:40,895.02,255.62,-343.26,992.08,3471.52,-2758.79,-366.21,-2075.2
19/7/2026,16:29:40,1046.14,294.19,-377.93,1150.56,7988.74,7556.15,1928.71,-1733.4
19/7/2026,16:29:40,1059.57,358.15,-218.51,1139.61,8615.07,671.39,3198.24,7971.19
19/7/2026,16:29:40,856.93,431.88,-338.62,1017.61,12341.59,-10131.83,3686.53,-6005.86
19/7/2026,16:29:40,774.41,317.63,-361.82,911.87,7141.83,-4125.98,-5712.89,-1159.67
19/7/2026,16:29:41,861.33,307.62,-331.79,972.93,4624.94,4345.71,-500.49,1501.46
19/7/2026,16:29:41,834.72,312.5,-289.06,937,2528.54,-1330.57,244.14,2136.23
19/7/2026,16:29:41,945.07,364.99,-321.04,1062.75,6315.77,5517.58,2624.51,-1599.12
19/7/2026,16:29:41,1033.45,416.99,-362.55,1171.89,5531.19,4418.95,2600.1,-2075.2
19/7/2026,16:29:41,1153.81,506.1,-380.62,1316.16,7542.23,6018.07,4455.57,-903.32
19/7/2026,16:29:41,1180.91,595.7,-163.57,1332.73,11818.34,1354.98,4479.98,10852.05
19/7/2026,16:29:41,1277.34,581.79,-371.34,1451.89,11473.8,4821.78,-695.8,-10388.18
19/7/2026,16:29:41,1137.7,546.14,-428.22,1332.67,7747.27,-6982.42,-1782.23,-2844.24
19/7/2026,16:29:41,941.16,583.74,-511.23,1219.79,10831.57,-9826.66,1879.88,-4150.39
19/7/2026,16:29:41,631.84,311.28,-666.02,969.38,22015.68,-15466.31,-13623.05,-7739.26
19/7/2026,16:29:41,707.28,337.4,-498.54,928.77,9276.75,3771.97,1306.15,8374.02
19/7/2026,16:29:41,738.53,348.63,-373.05,897.85,6490.38,1562.5,561.52,6274.41
19/7/2026,16:29:41,687.5,387.94,-373.05,873.11,3220.48,-2551.27,1965.33,0
19/7/2026,16:29:41,688.48,464.84,-501.22,970.21,7473.91,48.83,3845.21,-6408.69
19/7/2026,16:29:41,806.64,564.21,-575.44,1140.23,8565.14,5908.2,4968.26,-3710.94
19/7/2026,16:29:41,940.92,610.11,-516.85,1234.78,7676.31,6713.86,2294.92,2929.69
19/7/2026,16:29:41,834.96,519.53,-428.71,1072.78,8246.01,-5297.85,-4528.81,4406.74
19/7/2026,16:29:41,739.01,529.79,-355.47,976.31,6057.11,-4797.36,512.7,3662.11
19/7/2026,16:29:41,628.91,518.07,-378.66,898.5,5656.61,-5505.37,-585.94,-1159.67
19/7/2026,16:29:41,709.72,203.37,-406.74,842.91,16305.9,4040.53,-15734.86,-1403.81
19/7/2026,16:29:41,719.97,356.45,-446.04,918.89,7918.72,512.7,7653.81,-1965.33
19/7/2026,16:29:41,590.82,424.8,-408.94,834.72,7538.22,-6457.52,3417.97,1855.47
19/7/2026,16:29:41,510.01,469.24,-444.34,823.24,4939.1,-4040.53,2221.68,-1770.02
19/7/2026,16:29:41,619.38,537.35,-405.03,914.57,6735.65,5468.75,3405.76,1965.33
19/7/2026,16:29:41,723.88,317.14,-534.67,954.17,13803.93,5224.61,-11010.74,-6481.93
19/7/2026,16:29:41,540.28,470.46,-487.55,866.57,12189.54,-9179.69,7666.01,2355.96
19/7/2026,16:29:41,201.42,383.06,-571.04,716.51,17989.01,-16943.36,-4370.12,-4174.8
19/7/2026,16:29:41,297.85,262.94,-541.26,671.43,7844.6,4821.78,-6005.86,1489.26
19/7/2026,16:29:41,491.46,684.08,-434.57,947.81,23781.61,9680.18,21057.13,5334.47
19/7/2026,16:29:41,274.17,319.09,-498.54,652.32,21478.02,-10864.26,-18249.51,-3198.24
19/7/2026,16:29:41,764.16,590.82,-483.64,1080.24,28024.48,24499.51,13586.43,744.63
19/7/2026,16:29:41,546.87,553.47,-590.58,976.82,12251.83,-10864.26,-1867.68,-5346.68
19/7/2026,16:29:41,401.61,439.7,-518.07,789.32,9912.46,-7263.18,-5688.48,3625.49
19/7/2026,16:29:41,-30.76,428.22,-320.8,535.94,23769.3,-21618.65,-573.73,9863.28
19/7/2026,16:29:41,351.81,639.65,-509.52,890.24,23805.2,19128.42,10571.29,-9436.04
19/7/2026,16:29:41,657.23,669.92,-598.63,1113.15,15979.57,15271,1513.67,-4455.57
19/7/2026,16:29:41,721.68,557.13,-519.29,1049.23,7611.21,3222.66,-5639.65,3967.29
19/7/2026,16:29:41,539.31,464.11,-474.85,855.42,10474.56,-9118.65,-4650.88,2221.68
19/7/2026,16:29:41,328.61,412.11,-468.99,705.53,10854.75,-10534.67,-2600.1,292.97
19/7/2026,16:29:41,300.05,378.17,-519.53,709.19,3362.12,-1428.22,-1696.78,-2526.86
19/7/2026,16:29:41,297.61,362.55,-496.34,682.91,1403.6,-122.07,-781.25,1159.67
19/7/2026,16:29:41,539.31,316.16,-496.34,798.22,12305.51,12084.96,-2319.34,0
19/7/2026,16:29:41,769.53,423.83,-476.07,999.23,12748.13,11511.23,5383.3,1013.18
19/7/2026,16:29:41,475.83,620.12,-494.87,925.13,17687.79,-14685.06,9814.46,-939.94
19/7/2026,16:29:41,533.2,753.42,-710.21,1164.62,12983.51,2868.65,6665.04,-10766.6
19/7/2026,16:29:41,820.31,674.56,-778.32,1316.71,15271.7,14355.47,-3942.87,-3405.76
19/7/2026,16:29:41,899.41,609.86,-665.28,1274.16,7619.08,3955.08,-3234.86,5651.86
19/7/2026,16:29:41,781.01,528.08,-654.3,1147.58,7216.36,-5920.41,-4089.36,549.32
19/7/2026,16:29:41,593.02,385.01,-629.64,946.76,11875.99,-9399.41,-7153.32,1232.91
19/7/2026,16:29:41,709.23,349.12,-797.12,1122.63,10349.24,5810.55,-1794.43,-8374.02
19/7/2026,16:29:42,811.28,330.32,-890.38,1249.03,6975.94,5102.54,-939.94,-4663.08
19/7/2026,16:29:42,958.25,384.03,-911.87,1377.4,7897.37,7348.63,2685.55,-1074.22
19/7/2026,16:29:42,820.56,397.71,-870.85,1260.9,7216.16,-6884.77,683.59,2050.78
19/7/2026,16:29:42,708.5,354.49,-824.22,1143.23,6441.92,-5603.03,-2160.64,2331.54
19/7/2026,16:29:42,757.81,368.41,-803.71,1164.46,2759.68,2465.82,695.8,1025.39
19/7/2026,16:29:42,684.08,362.3,-836.18,1139.49,4039.73,-3686.52,-305.18,-1623.54
19/7/2026,16:29:42,683.59,346.68,-839.36,1136.66,797.58,-24.41,-781.25,-158.69
19/7/2026,16:29:42,635.5,262.45,-743.65,1012.8,6812.99,-2404.79,-4211.43,4785.15
19/7/2026,16:29:42,746.83,255.86,-709.23,1061.23,5835.75,5566.41,-329.59,1721.19
19/7/2026,16:29:42,736.08,295.41,-743.16,1086.91,2660.49,-537.11,1977.54,-1696.78
19/7/2026,16:29:42,774.17,298.83,-796.14,1149.99,3266.86,1904.3,170.9,-2648.93
19/7/2026,16:29:42,854.74,307.37,-764.16,1187.01,4355.12,4028.32,427.25,1599.12
19/7/2026,16:29:42,724.12,249.76,-597.41,971.41,10975.54,-6530.76,-2880.86,8337.4
19/7/2026,16:29:42,613.28,256.1,-564.7,872.12,5787.06,-5541.99,317.38,1635.74
19/7/2026,16:29:42,591.8,288.82,-714.11,971.39,7722.76,-1074.22,1635.74,-7470.7
19/7/2026,16:29:42,739.75,311.77,-785.89,1123.41,8301.75,7397.46,1147.46,-3588.87
19/7/2026,16:29:42,687.99,255.37,-692.38,1008.93,6042.1,-2587.89,-2819.82,4675.29
19/7/2026,16:29:42,693.36,251.22,-609.86,956.97,4139.91,268.55,-207.52,4125.98
19/7/2026,16:29:42,697.27,229.49,-598.39,947.06,1244.04,195.31,-1086.43,573.73
19/7/2026,16:29:42,770.75,242.19,-598.88,1005.67,3728.82,3674.32,634.77,-24.41
19/7/2026,16:29:42,726.81,232.67,-488.28,905.98,5969.35,-2197.27,-476.08,5529.79
19/7/2026,16:29:42,944.34,305.91,-605.22,1162.6,12880.13,10876.46,3662.11,-5847.17
19/7/2026,16:29:42,740.72,265.38,-565.43,968.92,10569.35,-10180.66,-2026.37,1989.75
19/7/2026,16:29:42,671.14,275.63,-564.94,919.55,3516.66,-3479,512.7,24.41
19/7/2026,16:29:42,718.02,275.15,-625.98,991.51,3847.98,2343.75,-24.41,-3051.76
19/7/2026,16:29:42,812.99,236.33,-673.1,1081.6,5645.02,4748.54,-1940.92,-2355.96
19/7/2026,16:29:42,872.31,250,-519.04,1045.39,8282.33,2966.31,683.59,7702.64
19/7/2026,16:29:42,826.17,252.93,-494.87,995.71,2608.59,-2307.13,146.48,1208.5
19/7/2026,16:29:42,740.23,260.5,-564.45,966.65,5541.64,-4296.88,378.42,-3479
19/7/2026,16:29:42,717.77,275.39,-653.56,1009.05,4654.87,-1123.05,744.63,-4455.57
19/7/2026,16:29:42,735.84,267.33,-650.39,1017.81,1001.72,903.32,-402.83,158.69
19/7/2026,16:29:42,800.05,233.15,-586.43,1018.99,4843.18,3210.45,-1708.99,3198.24
19/7/2026,16:29:42,823,227.54,-511.72,995.47,3917.7,1147.46,-280.76,3735.35
19/7/2026,16:29:42,786.62,236.82,-532.96,979.23,2156.68,-1818.85,463.87,-1062.01
19/7/2026,16:29:42,820.8,246.09,-623.78,1059.89,4874.08,1708.98,463.87,-4541.02
19/7/2026,16:29:42,763.18,236.57,-661.62,1037.38,3479.37,-2880.86,-476.07,-1892.09
19/7/2026,16:29:42,851.32,247.07,-672.36,1112.59,4470.27,4406.74,524.9,-537.11
19/7/2026,16:29:42,941.89,259.28,-537.84,1115.2,8131.59,4528.81,610.35,6726.07
19/7/2026,16:29:42,791.02,304.2,-447.27,958.27,9081.08,-7543.94,2246.09,4528.81
19/7/2026,16:29:42,671.63,295.17,-645.75,977.35,11589.99,-5969.24,-451.66,-9924.32
19/7/2026,16:29:42,684.81,294.19,-773.68,1074.29,6430.55,659.18,-48.83,-6396.48
19/7/2026,16:29:42,794.43,173.83,-728.52,1091.82,8447.36,5480.96,-6018.07,2258.3
19/7/2026,16:29:42,636.72,-63.23,-487.06,804.14,18666.29,-7885.74,-11853.03,12072.75
19/7/2026,16:29:42,686.52,202.88,-413.09,826.51,14032.91,2490.23,13305.66,3698.73
19/7/2026,16:29:42,826.66,235.11,-546.14,1018.29,9795.52,7006.84,1611.33,-6652.83
19/7/2026,16:29:42,944.82,185.3,-764.65,1229.52,12667.68,5908.2,-2490.23,-10925.29
19/7/2026,16:29:42,830.08,312.99,-705.81,1133.65,9073.61,-5737.3,6384.28,2941.89
19/7/2026,16:29:42,756.35,476.81,-549.07,1049.23,11920.52,-3686.52,8190.92,7836.91
19/7/2026,16:29:42,491.7,460.21,-506.84,842.88,13425.57,-13232.42,-830.08,2111.82
19/7/2026,16:29:42,565.92,484.38,-581.79,945.18,5410.7,3710.94,1208.5,-3747.56
19/7/2026,16:29:43,645.75,717.53,-682.13,1182.01,13304.4,3991.7,11657.71,-5017.09
19/7/2026,16:29:43,264.4,721.19,-546.63,942.78,20236.05,-19067.38,183.11,6774.9
19/7/2026,16:29:43,530.27,345.21,-723.63,961.25,24666.5,13293.46,-18798.83,-8850.1
19/7/2026,16:29:43,498.29,607.42,-803.96,1124.1,13804.62,-1599.12,13110.35,-4016.11
19/7/2026,16:29:43,555.18,522.22,-830.32,1127.1,5289.38,2844.24,-4260.25,-1318.36
19/7/2026,16:29:43,817.14,558.84,-778.32,1259.28,13478.68,13098.15,1831.05,2600.1
19/7/2026,16:29:43,606.2,470.95,-607.91,979.2,14252.99,-10546.88,-4394.53,8520.51
19/7/2026,16:29:43,545.9,517.09,-656.98,998.51,4520.41,-3015.14,2307.13,-2453.61
19/7/2026,16:29:43,588.38,611.57,-690.19,1093.88,5439.2,2124.02,4724.12,-1660.16
19/7/2026,16:29:43,540.77,498.78,-607.18,953.88,7395.78,-2380.37,-5639.65,4150.39
19/7/2026,16:29:43,885.74,521.48,-780.52,1290.62,19336.95,17248.54,1135.25,-8666.99
19/7/2026,16:29:43,688.48,492.92,-611.82,1044.65,13056.58,-9863.28,-1428.22,8435.06
19/7/2026,16:29:43,403.32,470.7,-570.8,842.64,14447.31,-14257.81,-1110.84,2050.78
19/7/2026,16:29:43,523.68,636.72,-607.42,1024.02,10415.03,6018.07,8300.78,-1831.05
19/7/2026,16:29:43,584.96,542.72,-546.14,966.95,6392.42,3063.96,-4699.71,3063.96
19/7/2026,16:29:43,814.21,549.56,-573.97,1137.72,11551.62,11462.4,341.8,-1391.6
19/7/2026,16:29:43,695.8,493.41,-580.32,1031.68,6560.08,-5920.41,-2807.62,-317.38
19/7/2026,16:29:43,563.96,475.1,-585.94,941.86,6660.99,-6591.8,-915.53,-280.76
19/7/2026,16:29:43,541.5,452.15,-655.03,962.67,3809.47,-1123.05,-1147.46,-3454.59
19/7/2026,16:29:43,665.04,448.49,-614.01,1010.16,6510.88,6176.76,-183.11,2050.78
19/7/2026,16:29:43,723.14,362.06,-546.63,976.13,6202.04,2905.27,-4321.29,3369.14
19/7/2026,16:29:43,603.76,418.46,-615.23,958.2,7439.71,-5969.24,2819.82,-3430.18
19/7/2026,16:29:43,434.33,503.66,-683.11,953.39,10071.51,-8471.68,4260.26,-3393.55
19/7/2026,16:29:43,525.15,481.93,-702.88,1001.04,4772.71,4541.01,-1086.42,-988.77
19/7/2026,16:29:43,684.33,494.87,-642.09,1060.89,8544.17,7958.98,646.97,3039.55
19/7/2026,16:29:43,778.32,500.49,-650.88,1131.33,4728.55,4699.71,280.76,-439.45
19/7/2026,16:29:43,655.52,455.08,-612.3,1005.84,6824.69,-6140.14,-2270.51,1928.71
19/7/2026,16:29:43,684.57,420.65,-741.94,1093.65,6862.08,1452.64,-1721.19,-6481.93
19/7/2026,16:29:43,718.99,388.43,-621.58,1026.74,6463.44,1721.19,-1611.33,6018.07
19/7/2026,16:29:43,652.34,376.95,-580.08,950.86,3967.53,-3332.52,-573.73,2075.2
19/7/2026,16:29:43,700.2,436.52,-564.45,999.72,3899.53,2392.58,2978.52,781.25
19/7/2026,16:29:43,581.05,458.25,-600.59,953.06,6319.06,-5957.03,1086.43,-1806.64
19/7/2026,16:29:43,618.16,431.15,-673.58,1010.81,4312.83,1855.47,-1354.98,-3649.9
19/7/2026,16:29:43,565.92,453.86,-500,881.05,9134.63,-2612.3,1135.25,8679.2
19/7/2026,16:29:43,760.01,433.84,-591.55,1056.3,10776.63,9704.59,-1000.98,-4577.64
19/7/2026,16:29:43,658.69,423.1,-576.42,972.18,5150.22,-5065.92,-537.11,756.84
19/7/2026,16:29:43,686.77,309.33,-617.68,974.09,6211.71,1403.81,-5688.48,-2062.99
19/7/2026,16:29:43,779.79,393.07,-590.58,1054.2,6402.95,4650.88,4187.01,1354.98
19/7/2026,16:29:43,609.37,438.96,-517.09,911.82,9558.57,-8520.51,2294.92,3674.32
19/7/2026,16:29:43,893.07,385.5,-638.18,1163.38,15652.73,14184.57,-2673.34,-6054.69
19/7/2026,16:29:43,996.83,901.86,28.08,1344.54,42464.49,5187.99,25817.87,33312.99
19/7/2026,16:29:43,926.27,489.75,-394.78,1119.68,29732.8,-3527.83,-20605.47,-21142.58
19/7/2026,16:29:43,398.93,243.41,-421.14,629.09,29131.99,-26367.19,-12316.89,-1318.36
19/7/2026,16:29:43,855.47,489.5,-575.68,1141.42,27059.04,22827.15,12304.69,-7727.05
19/7/2026,16:29:43,961.67,436.28,-519.78,1176.99,6564.5,5310.06,-2661.13,2795.41
19/7/2026,16:29:43,735.35,431.88,-433.59,956.7,12110.59,-11315.92,-219.73,4309.08
19/7/2026,16:29:43,669.19,483.64,-354.25,898.45,5777.55,-3308.11,2587.89,3967.29
19/7/2026,16:29:43,695.56,474.37,-381.59,924.36,1955.11,1318.36,-463.87,-1367.19
19/7/2026,16:29:43,907.47,489.26,-440.67,1121.19,11024.98,10595.71,744.63,-2954.1
19/7/2026,16:29:43,988.28,463.62,-451.42,1181.28,4272.84,4040.52,-1281.74,-537.11
19/7/2026,16:29:44,858.15,408.45,-434.57,1045.04,7117.09,-6506.35,-2758.79,842.28
19/7/2026,16:29:44,798.34,455.32,-478.03,1035.94,4377.08,-2990.72,2343.75,-2172.85
19/7/2026,16:29:44,806.88,386.72,-479.25,1015.03,3457.22,427.25,-3430.18,-61.04
19/7/2026,16:29:44,790.28,462.16,-335.94,975.19,8140.12,-830.08,3771.97,7165.53
19/7/2026,16:29:44,785.4,522.95,-309.57,993.06,3322.13,-244.14,3039.55,1318.36
19/7/2026,16:29:44,924.56,524.17,-490.97,1170.73,11431.5,6958.01,61.04,-9069.82
19/7/2026,16:29:44,807.37,643.07,-340.82,1086.99,11226.45,-5859.38,5944.82,7507.32
19/7/2026,16:29:44,806.64,553.47,-342.29,1036.41,4480.73,-36.62,-4479.98,-73.24
19/7/2026,16:29:44,682.37,780.76,-354,1095.69,12965.6,-6213.38,11364.75,-585.94
19/7/2026,16:29:44,776.86,-216.55,-376.46,890.01,50101.59,4724.12,-49865.72,-1123.05
19/7/2026,16:29:44,901.61,-287.6,-317.63,998.25,7757.79,6237.8,-3552.25,2941.89
19/7/2026,16:29:44,601.81,587.4,-49.07,842.39,48156.76,-14990.24,43750,13427.73
19/7/2026,16:29:44,1118.65,370.85,-271.97,1209.5,30154.15,25842.29,-10827.64,-11145.02
19/7/2026,16:29:44,1461.91,160.64,-515.62,1558.48,23525.58,17163.09,-10510.25,-12182.62
19/7/2026,16:29:44,864.99,482.42,-169.68,1004.85,38063.7,-29846.19,16088.87,17297.36
19/7/2026,16:29:44,1032.23,-410.16,-355.71,1166.3,46348.48,8361.82,-44628.91,-9301.76
19/7/2026,16:29:44,731.69,-148.68,-139.65,759.59,22659.18,-15026.86,13073.73,10803.22
19/7/2026,16:29:44,851.32,84.72,-97.41,861.05,13282.49,5981.45,11669.92,2111.82
19/7/2026,16:29:44,1022.22,148.68,-226.07,1057.42,11163.75,8544.92,3198.24,-6433.11
19/7/2026,16:29:44,1087.89,95.95,-186.04,1107.85,4662.91,3283.69,-2636.72,2001.95
19/7/2026,16:29:44,1009.28,-66.41,-174.56,1026.41,9037.47,-3930.66,-8117.68,573.73
19/7/2026,16:29:44,882.32,-101.81,-94.24,893.16,7717.18,-6347.66,-1770.02,4016.11
19/7/2026,16:29:44,839.84,-66.41,21.48,842.74,6412.78,-2124.03,1770.02,5786.13
19/7/2026,16:29:44,1035.16,-5.62,-41.26,1035.99,10698.06,9765.63,3039.55,-3137.21
19/7/2026,16:29:44,1089.36,-38.57,-113.28,1095.91,4798.68,2709.96,-1647.95,-3601.07
19/7/2026,16:29:44,1005.86,-157.23,-43.95,1019.02,8040.13,-4174.8,-5932.62,3466.8
19/7/2026,16:29:44,891.85,-176.76,-36.13,909.91,5796.9,-5700.69,-976.56,390.62
19/7/2026,16:29:44,842.53,-171.39,16.36,859.94,3611.15,-2465.82,268.55,2624.51
19/7/2026,16:29:44,902.1,-108.4,-92.29,913.26,6949.71,2978.52,3149.41,-5432.13
19/7/2026,16:29:44,1016.6,-170.9,-95.46,1035.28,6524.38,5725.09,-3125,-158.69
19/7/2026,16:29:44,1081.54,-114.99,-123.29,1094.6,4504.92,3247.07,2795.41,-1391.6
19/7/2026,16:29:44,1062.26,65.43,-138.43,1073.23,9103.91,-964.36,9021,-756.84
19/7/2026,16:29:44,934.33,-55.91,167.48,950.86,17654.23,-6396.48,-6066.89,15295.41
19/7/2026,16:29:44,836.91,-196.04,-31.98,860.16,13125.63,-4870.61,-7006.84,-9973.14
19/7/2026,16:29:44,863.53,-239.26,-143.31,907.45,6117.49,1330.57,-2160.65,-5566.41
19/7/2026,16:29:44,943.12,-94.24,172.61,963.4,17830.41,3979.49,7250.98,15795.9
19/7/2026,16:29:44,1166.75,55.18,-86.67,1171.26,18678.93,11181.64,7470.7,-12963.87
19/7/2026,16:29:44,1133.3,-43.7,-76.42,1136.71,5244.17,-1672.36,-4943.85,512.7
19/7/2026,16:29:44,891.11,-227.29,-74.71,922.67,15195.75,-12109.37,-9179.69,85.45
19/7/2026,16:29:44,849.85,-199.95,-109.86,879.94,3035.63,-2062.99,1367.19,-1757.81
19/7/2026,16:29:44,976.81,-109.86,-206.05,1004.33,9149.55,6347.66,4504.39,-4809.57
19/7/2026,16:29:44,1087.16,-67.87,-152.1,1099.84,6490.76,5517.58,2099.61,2697.75
19/7/2026,16:29:44,1183.59,31.01,-133.54,1191.51,6967.92,4821.78,4943.85,927.73
19/7/2026,16:29:44,1168.21,27.1,-152.34,1178.42,1230.07,-769.04,-195.31,-939.94
19/7/2026,16:29:44,990.97,-174.32,-91.06,1010.29,13760.43,-8862.31,-10070.8,3063.96
19/7/2026,16:29:44,925.29,-227.05,-123.05,960.66,4504.67,-3283.69,-2636.72,-1599.12
19/7/2026,16:29:44,903.08,-125.24,-31.49,912.26,6935.43,-1110.84,5090.33,4577.64
19/7/2026,16:29:44,951.42,41.26,-22.22,952.57,8681.35,2416.99,8325.2,463.87
19/7/2026,16:29:44,1116.94,6.59,-64.21,1118.81,8712.71,8276.37,-1733.4,-2099.61
19/7/2026,16:29:44,1225.34,-165.28,-69.82,1238.41,10164,5419.92,-8593.75,-280.76
19/7/2026,16:29:45,1229.74,-91.06,-71.53,1235.18,3718.42,219.73,3710.94,-85.45
19/7/2026,16:29:45,1154.05,7.32,-14.16,1154.16,6837.4,-3784.18,4919.43,2868.65
19/7/2026,16:29:45,1097.9,-145.51,-39.06,1108.19,8235.72,-2807.62,-7641.6,-1245.12
19/7/2026,16:29:45,1223.88,-153.32,3.17,1233.45,6654.89,6298.83,-390.62,2111.82
19/7/2026,16:29:45,1431.4,7.57,-58.35,1432.61,13484.68,10375.98,8044.43,-3076.17
19/7/2026,16:29:45,1527.1,-41.5,-12.94,1527.72,5837.22,4785.16,-2453.61,2270.51
19/7/2026,16:29:45,1489.99,-112.79,8.06,1494.28,4153.33,-1855.47,-3564.45,1049.8
19/7/2026,16:29:45,1327.64,-84.72,16.36,1330.44,8248.61,-8117.68,1403.81,415.04
19/7/2026,16:29:45,1095.46,-153.81,34.67,1106.75,12146.55,-11608.89,-3454.59,915.53
19/7/2026,16:29:45,925.29,-117.19,99.12,937.94,9280.6,-8508.3,1831.06,3222.66
19/7/2026,16:29:45,950.2,-179.2,90.58,971.18,3368.46,1245.12,-3100.59,-427.25
19/7/2026,16:29:45,1085.69,-105.96,8.06,1090.88,8736.93,6774.9,3662.11,-4125.98
19/7/2026,16:29:45,926.51,64.7,208.5,951.88,15381.57,-7958.98,8532.71,10021.97
19/7/2026,16:29:45,770.51,-187.74,235.11,827.17,14897.37,-7800.29,-12622.07,1330.57
19/7/2026,16:29:45,833.98,-393.55,174.56,938.56,11186.28,3173.83,-10290.53,-3027.34
19/7/2026,16:29:45,835.94,-258.3,169.68,891.24,6767.81,97.66,6762.7,-244.14
19/7/2026,16:29:45,742.43,-21.73,165.28,760.92,12720.96,-4675.29,11828.61,-219.73
19/7/2026,16:29:45,679.2,-68.12,109.13,691.27,4822.64,-3161.62,-2319.34,-2807.62
19/7/2026,16:29:45,603.27,-242.19,82.03,655.23,9591.74,-3796.39,-8703.61,-1354.98
19/7/2026,16:29:45,519.53,-364.75,83.25,640.22,7422.02,-4187.01,-6127.93,61.04
19/7/2026,16:29:45,518.31,-216.8,200.93,596.67,9452.25,-61.04,7397.46,5883.79
19/7/2026,16:29:45,711.67,-25.15,136.72,725.12,13985.75,9667.97,9582.52,-3210.45
19/7/2026,16:29:45,882.32,-84.72,9.77,886.44,11044.07,8532.71,-2978.52,-6347.66
19/7/2026,16:29:45,825.68,-323.97,9.03,887.01,12293.6,-2832.03,-11962.89,-36.62
19/7/2026,16:29:45,619.14,-232.42,117.19,671.63,12523.9,-10327.15,4577.64,5407.71
19/7/2026,16:29:45,487.06,-17.09,154.79,511.35,12769.75,-6604,10766.6,1879.88
19/7/2026,16:29:45,539.31,-125,156.74,575.36,5995.43,2612.3,-5395.51,97.66
19/7/2026,16:29:45,776.86,-323.73,92.53,846.68,15815.03,11877.44,-9936.52,-3210.45
19/7/2026,16:29:45,975.34,-271.24,59.81,1014.12,10394.99,9924.32,2624.51,-1635.74
19/7/2026,16:29:45,1039.79,-124.51,104,1052.38,8312.07,3222.66,7336.43,2209.47
19/7/2026,16:29:45,1101.81,-76.9,110.84,1110.03,3923.85,3100.59,2380.37,341.8
19/7/2026,16:29:45,1000.98,-166.5,91.55,1018.85,6813,-5041.5,-4479.98,-964.36
19/7/2026,16:29:45,872.07,-374.27,79.1,952.28,12241.08,-6445.31,-10388.18,-622.56
19/7/2026,16:29:45,823.49,-369.87,149.9,915.1,4298.97,-2429.2,219.73,3540.04
19/7/2026,16:29:45,958.01,-35.89,104.25,964.33,18147.03,6726.08,16699.22,-2282.72
19/7/2026,16:29:45,1121.83,154.3,-28.08,1132.74,14187.73,8190.92,9509.28,-6616.21
19/7/2026,16:29:45,1259.77,13.18,-115.97,1265.16,10801.04,6896.97,-7055.66,-4394.53
19/7/2026,16:29:45,1289.31,-227.54,-73,1311.26,12315.27,1477.05,-12036.13,2148.44
19/7/2026,16:29:45,1217.53,-150.63,-23.68,1227.04,5809.12,-3588.87,3845.21,2465.82
19/7/2026,16:29:45,1129.64,95.21,-49.8,1134.74,13119.57,-4394.53,12292.48,-1306.15
19/7/2026,16:29:45,1159.67,214.6,-118.65,1185.31,7052.39,1501.46,5969.24,-3442.38
19/7/2026,16:29:45,1232.67,31.25,-137.21,1240.67,9910.86,3649.9,-9167.48,-927.73
19/7/2026,16:29:45,1236.08,-62.5,-142.58,1245.85,4698.3,170.9,-4687.5,-268.55
19/7/2026,16:29:45,1166.02,94.73,-88.62,1173.21,9019.55,-3503.42,7861.33,2697.75
19/7/2026,16:29:45,1166.26,235.6,-60.06,1191.33,7186.81,12.21,7043.46,1428.22
19/7/2026,16:29:45,1216.31,124.51,-79.59,1225.25,6169.68,2502.44,-5554.2,-976.56
19/7/2026,16:29:45,1148.93,-19.78,-132.81,1156.75,8395.22,-3369.14,-7214.36,-2661.13
19/7/2026,16:29:45,976.81,25.63,-24.66,977.45,10414.46,-8605.96,2270.51,5407.71
19/7/2026,16:29:45,939.94,72.27,49.07,943.99,4735.42,-1843.26,2331.54,3686.52
19/7/2026,16:29:45,1119.38,81.79,-26.37,1122.68,9744.45,8972.17,476.07,-3771.97
19/7/2026,16:29:46,1155.03,70.31,-30.76,1157.58,1885.15,1782.23,-573.73,-219.73
19/7/2026,16:29:46,972.9,-12.7,40.28,973.82,10619.39,-9106.45,-4150.39,3552.25
19/7/2026,16:29:46,822.27,-84.72,78.12,830.3,8560.07,-7531.74,-3601.07,1892.09
19/7/2026,16:29:46,848.14,-10.01,156.25,862.48,5557.51,1293.94,3735.35,3906.25
19/7/2026,16:29:46,1028.56,75.44,54.93,1032.79,11193.56,9021,4272.46,-5065.92
19/7/2026,16:29:46,1080.81,26.37,72.02,1083.53,3684.36,2612.3,-2453.61,854.49
19/7/2026,16:29:46,1048.83,-35.64,62.5,1051.29,3521,-1599.12,-3100.59,-476.07
19/7/2026,16:29:46,971.19,-6.59,69.09,973.67,4157.82,-3881.84,1452.64,329.59
19/7/2026,16:29:46,952.64,37.84,71.53,956.07,2410.69,-927.73,2221.68,122.07
19/7/2026,16:29:46,994.63,29.79,84.72,998.67,2237.22,2099.61,-402.83,659.18
19/7/2026,16:29:46,1051.51,29.3,74.22,1054.54,2892.37,2844.24,-24.41,-524.9
19/7/2026,16:29:46,1066.41,28.08,79.1,1069.7,786,744.63,-61.04,244.14
19/7/2026,16:29:46,1079.83,-0.73,34.18,1080.38,2751.46,671.39,-1440.43,-2246.09
19/7/2026,16:29:46,1073.97,-37.11,23.19,1074.87,1922.44,-292.97,-1818.85,-549.32
19/7/2026,16:29:46,1020.02,-8.3,62.01,1021.94,3622.14,-2697.75,1440.43,1940.92
19/7/2026,16:29:46,1027.34,36.13,105.96,1033.43,3146.1,366.21,2221.68,2197.27
19/7/2026,16:29:46,1119.63,-8.3,58.11,1121.17,5652.58,4614.26,-2221.68,-2392.58
19/7/2026,16:29:46,1184.57,-48.1,23.44,1185.78,4184.16,3247.07,-1989.75,-1733.4
19/7/2026,16:29:46,1195.07,-24.17,27.34,1195.63,1320.9,524.9,1196.29,195.31
19/7/2026,16:29:46,1161.87,-1.71,93.51,1165.62,3867.93,-1660.16,1123.05,3308.11
19/7/2026,16:29:46,1151.61,22.22,162.11,1163.18,3668.8,-512.7,1196.29,3430.18
19/7/2026,16:29:46,1209.23,-5.13,97.9,1213.2,4524.99,2880.86,-1367.19,-3210.45
19/7/2026,16:29:46,1239.01,-86.67,99.61,1246.03,4341.47,1489.26,-4077.15,85.45
19/7/2026,16:29:46,1207.52,-77.88,146.24,1218.83,2847.62,-1574.71,439.45,2331.54
19/7/2026,16:29:46,1146.48,46.63,154.79,1157.83,6946.49,-3051.76,6225.59,427.25
19/7/2026,16:29:46,1109.13,21.97,139.16,1118.04,2370.37,-1867.68,-1232.91,-781.25
19/7/2026,16:29:46,1061.77,-84.96,181.4,1080.5,6217.31,-2368.16,-5346.68,2111.82
19/7/2026,16:29:46,979.25,-111.57,196.53,1004.99,4400.78,-4125.98,-1330.57,756.84
19/7/2026,16:29:46,938.23,-59.81,180.18,957.25,3401.73,-2050.78,2587.89,-817.87
19/7/2026,16:29:46,915.28,-30.76,274.9,956.17,5085.24,-1147.46,1452.64,4736.33
19/7/2026,16:29:46,993.65,-27.34,252.93,1025.7,4073.14,3918.45,170.9,-1098.63
19/7/2026,16:29:46,981.69,-46.14,254.15,1015.1,1115.79,-598.15,-939.94,61.04
19/7/2026,16:29:46,863.04,-146.24,258.3,912.65,7764.52,-5932.61,-5004.88,207.52
19/7/2026,16:29:46,759.03,-166.75,288.82,829.07,5515.59,-5200.2,-1025.39,1525.88
19/7/2026,16:29:46,790.53,-97.9,291.99,848.4,3788.78,1574.71,3442.38,158.69
19/7/2026,16:29:46,917.97,-60.06,328.61,976.86,6894.64,6372.07,1892.09,1831.05
19/7/2026,16:29:46,1041.5,-23.44,271.97,1076.68,7037.44,6176.76,1831.05,-2832.03
19/7/2026,16:29:46,940.43,-45.9,275.15,980.93,5179.42,-5053.71,-1123.05,158.69
19/7/2026,16:29:46,710.69,-113.28,366.7,807.7,12816.11,-11486.81,-3369.14,4577.64
19/7/2026,16:29:46,641.11,-185.06,393.8,774.82,5178.75,-3479,-3588.87,1354.98
19/7/2026,16:29:46,700.68,-111.57,454.35,842.52,5615.78,2978.52,3674.32,3027.34
19/7/2026,16:29:46,797.85,-33.69,389.16,888.34,7027.84,4858.4,3894.04,-3259.28
19/7/2026,16:29:46,765.87,-72.02,396.24,865.3,2521.01,-1599.12,-1916.5,354
19/7/2026,16:29:46,637.21,-176.51,385.74,765.5,8304.03,-6433.11,-5224.61,-524.9
19/7/2026,16:29:46,492.68,-207.76,429.69,685.95,7713.14,-7226.56,-1562.5,2197.27
19/7/2026,16:29:46,535.4,-144.04,425.78,699.06,3840.89,2136.23,3186.03,-195.31
19/7/2026,16:29:46,703.37,-42.97,349.85,786.75,10511.25,8398.44,5053.71,-3796.39
19/7/2026,16:29:46,763.18,-33.45,312.99,825.55,3545.23,2990.72,476.07,-1843.26
19/7/2026,16:29:46,730.22,-113.04,318.12,804.49,4314.84,-1647.95,-3979.49,256.35
19/7/2026,16:29:46,691.89,-105.96,267.58,749.36,3191.13,-1916.5,354,-2526.86
19/7/2026,16:29:47,677.49,-107.18,252.93,731.06,1029.02,-720.21,-61.04,-732.42
19/7/2026,16:29:47,741.21,-172.12,228.52,794.5,4710.03,3186.04,-3247.07,-1220.7
19/7/2026,16:29:47,840.09,-131.59,164.55,866.11,6227.08,4943.85,2026.37,-3198.24
19/7/2026,16:29:47,933.35,-132.81,115.97,949.86,5258.24,4663.09,-61.04,-2429.2
19/7/2026,16:29:47,1062.26,-189.7,99.37,1083.63,7093.71,6445.31,-2844.24,-830.08
19/7/2026,16:29:47,1081.79,-68.6,95.7,1088.18,6135.67,976.56,6054.69,-183.11
19/7/2026,16:29:47,1068.6,15.87,88.13,1072.35,4291.48,-659.18,4223.63,-378.42
19/7/2026,16:29:47,1143.07,-67.63,39.31,1145.74,6103.38,3723.14,-4174.8,-2441.41
19/7/2026,16:29:47,1191.16,-63.23,55.66,1194.14,2549.55,2404.79,219.73,817.87
19/7/2026,16:29:47,1247.8,19.29,-31.74,1248.36,6643.95,2832.03,4125.98,-4370.12
19/7/2026,16:29:47,1230.96,117.43,-22.46,1236.75,5000.55,-842.29,4907.23,463.87
19/7/2026,16:29:47,1318.36,105.47,-62.74,1324.06,4848.97,4370.12,-598.14,-2014.16
19/7/2026,16:29:47,1424.07,70.56,-66.16,1427.35,5569.06,5285.64,-1745.61,-170.9
19/7/2026,16:29:47,1320.31,132.08,-36.13,1327.39,6215.5,-5187.99,3076.17,1501.46
19/7/2026,16:29:47,1118.16,74.46,52,1121.85,11396.43,-10107.42,-2880.86,4406.74
19/7/2026,16:29:47,1019.29,44.92,54.93,1021.75,5161.86,-4943.85,-1477.05,146.48
19/7/2026,16:29:47,1049.8,52.49,57.13,1052.67,1575.94,1525.88,378.42,109.86
19/7/2026,16:29:47,1191.16,-1.71,-1.46,1191.16,8116.76,7067.87,-2709.96,-2929.69
19/7/2026,16:29:47,1185.55,1.71,45.17,1186.41,2354.6,-280.76,170.9,2331.54
19/7/2026,16:29:47,1049.07,96.92,105.47,1058.81,8849.8,-6823.73,4760.74,3015.14
19/7/2026,16:29:47,956.54,100.59,133.3,971.01,4834.69,-4626.46,183.11,1391.6
19/7/2026,16:29:47,976.56,24.17,87.16,980.74,4574.2,1000.97,-3820.8,-2307.13
19/7/2026,16:29:47,1024.17,-59.81,71.04,1028.37,4893.74,2380.37,-4199.22,-805.66
19/7/2026,16:29:47,1023.68,-36.38,59.08,1026.03,1315.93,-24.41,1171.88,-598.14
19/7/2026,16:29:47,1023.93,7.08,90.58,1027.95,2683.49,12.21,2172.85,1574.71
19/7/2026,16:29:47,1015.14,105.22,124.76,1028.17,5214.85,-439.45,4907.23,1708.98
19/7/2026,16:29:47,994.14,69.34,98.88,1001.45,2448.75,-1049.8,-1794.43,-1293.95
19/7/2026,16:29:47,936.04,-55.66,98.88,942.89,6892.25,-2905.28,-6250,0
19/7/2026,16:29:47,891.11,-100.1,151.86,909.48,4122.81,-2246.09,-2221.68,2648.93
19/7/2026,16:29:47,922.85,22.46,186.52,941.78,6563.12,1586.91,6127.93,1733.4
19/7/2026,16:29:47,1097.17,103.03,63.48,1103.82,11403.69,8715.82,4028.32,-6152.34
19/7/2026,16:29:47,1150.39,54.2,58.11,1153.13,3621.36,2661.13,-2441.41,-268.55
19/7/2026,16:29:47,1015.62,-23.68,107.91,1021.62,8171.25,-6738.28,-3894.04,2490.23
19/7/2026,16:29:47,874.27,-58.59,139.65,887.29,7451.19,-7067.87,-1745.61,1586.91
19/7/2026,16:29:47,974.85,-25.39,134.03,984.35,5303.66,5029.3,1660.16,-280.76
19/7/2026,16:29:47,1167.48,65.43,59.33,1170.82,11284.35,9631.35,4541.02,-3735.35
19/7/2026,16:29:47,1171.63,77.64,58.35,1175.65,646.51,207.52,610.35,-48.83
19/7/2026,16:29:47,1047.85,-6.84,93.26,1052.02,7693.47,-6188.96,-4223.63,1745.61
19/7/2026,16:29:47,1020.75,-73.24,102.05,1028.45,3612.97,-1354.98,-3320.31,439.45
19/7/2026,16:29:47,1105.96,-4.64,106.69,1111.1,5474.46,4260.25,3430.18,231.93
19/7/2026,16:29:47,1136.96,56.64,104.49,1143.16,3435.6,1550.29,3063.96,-109.86
19/7/2026,16:29:47,1132.32,19.53,106.93,1137.53,1873.89,-231.93,-1855.47,122.07
19/7/2026,16:29:47,1174.32,-79.83,108.64,1182.03,5394.38,2099.61,-4968.26,85.45
19/7/2026,16:29:47,1215.33,-70.8,160.89,1227.98,3351.69,2050.78,451.66,2612.3
19/7/2026,16:29:47,1161.87,93.75,177.73,1179.11,8691.87,-2673.34,8227.54,842.29
19/7/2026,16:29:47,1147.95,79.35,153.81,1160.92,1560.11,-695.8,-720.21,-1196.29
19/7/2026,16:29:47,1133.3,-58.35,120.61,1141.19,7119.87,-732.42,-6884.77,-1660.16
19/7/2026,16:29:47,1053.71,-135.99,166.99,1075.49,6023.65,-3979.49,-3881.84,2319.34
19/7/2026,16:29:47,1006.1,-67.38,205.57,1029.1,4599.15,-2380.37,3430.18,1928.71
19/7/2026,16:29:47,1041.02,25.39,222.66,1064.86,5029.37,1745.61,4638.67,854.49
19/7/2026,16:29:48,1120.36,-6.84,162.84,1132.15,5223.04,3967.29,-1611.33,-2990.72
19/7/2026,16:29:48,1059.08,-54.93,232.67,1085.73,5230.62,-3063.96,-2404.79,3491.21
19/7/2026,16:29:48,979.25,-77.88,216.8,1005.98,4228.46,-3991.7,-1147.46,-793.46
19/7/2026,16:29:48,945.56,-64.94,183.35,965.36,2460.32,-1684.57,646.97,-1672.36
19/7/2026,16:29:48,872.8,-13.67,233.4,903.57,5105.53,-3637.7,2563.48,2502.44
19/7/2026,16:29:48,917.72,-51.51,258.79,954.91,3199.48,2246.1,-1892.09,1269.53
19/7/2026,16:29:48,1010.5,-64.45,273.68,1048.89,4742.39,4638.67,-646.97,744.63
19/7/2026,16:29:48,990.23,-28.08,289.79,1032.15,2232.45,-1013.18,1818.85,805.66
19/7/2026,16:29:48,895.75,-29.54,306.64,947.24,4799.18,-4724.12,-73.24,842.29
19/7/2026,16:29:48,836.67,-73,315.19,897.04,3691.95,-2954.1,-2172.85,427.25
19/7/2026,16:29:48,803.47,-102.05,313.23,868.38,2208.12,-1660.16,-1452.64,-97.66
19/7/2026,16:29:48,738.53,-112.06,383.06,839.47,4794.01,-3247.07,-500.49,3491.21
19/7/2026,16:29:48,758.3,-114.26,410.89,870,1710.64,988.77,-109.86,1391.6
19/7/2026,16:29:48,795.65,-126.22,409.67,903.78,1962.07,1867.68,-598.14,-61.04
19/7/2026,16:29:48,765.38,-139.16,449.95,898.68,2601.27,-1513.67,-646.97,2014.16
19/7/2026,16:29:48,749.02,-125.24,442.63,879,1134.53,-817.87,695.8,-366.21
19/7/2026,16:29:48,729.25,-65.92,392.82,830.94,3997.24,-988.77,2966.31,-2490.23
19/7/2026,16:29:48,764.16,-131.1,343.26,847.91,4450.92,1745.61,-3259.28,-2478.03
19/7/2026,16:29:48,750.98,-166.99,313.23,830.64,2430.82,-659.18,-1794.43,-1501.46
19/7/2026,16:29:48,622.8,-130.86,373.05,737.68,7299.29,-6408.69,1806.64,2990.72
19/7/2026,16:29:48,604.74,-155.03,360.35,720.83,1636.88,-903.32,-1208.5,-634.77
19/7/2026,16:29:48,704.35,-163.57,274.41,773.41,6591.72,4980.47,-427.25,-4296.88
19/7/2026,16:29:48,797.12,-65.67,278.32,846.86,6746.6,4638.67,4895.02,195.31
19/7/2026,16:29:48,946.53,-0.73,204.35,968.34,8946.25,7470.7,3247.07,-3698.73
19/7/2026,16:29:48,1018.8,-33.94,127.2,1027.27,5540,3613.28,-1660.16,-3857.42
19/7/2026,16:29:48,904.05,-193.85,202.88,946.6,10543.55,-5737.3,-7995.61,3784.18
19/7/2026,16:29:48,640.87,-168.21,358.15,753.18,15332.37,-13159.18,1281.74,7763.67
19/7/2026,16:29:48,553.47,17.58,286.87,623.64,10867.34,-4370.12,9289.55,-3564.45
19/7/2026,16:29:48,863.28,-50.05,87.4,869.14,18731.25,15490.73,-3381.35,-9973.14
19/7/2026,16:29:48,1195.07,-164.31,21.48,1206.5,17852.36,16589.35,-5712.89,-3295.9
19/7/2026,16:29:48,1209.72,-76.42,2.69,1212.13,4553.22,732.42,4394.53,-939.94
19/7/2026,16:29:48,944.58,36.62,126.46,953.71,15684.08,-13256.84,5651.86,6188.96
19/7/2026,16:29:48,802,38.82,121.34,812.06,7134.36,-7128.91,109.86,-256.35
19/7/2026,16:29:48,1045.9,-83.5,-5.37,1049.24,15041.73,12194.82,-6115.72,-6335.45
19/7/2026,16:29:48,1373.54,-108.89,-33.94,1378.26,16492.91,16381.84,-1269.53,-1428.22
19/7/2026,16:29:48,1457.76,94.48,11.47,1460.87,11237.83,4211.43,10168.46,2270.51
19/7/2026,16:29:48,1300.54,208.74,29.54,1317.51,9759.79,-7861.33,5712.89,903.32
19/7/2026,16:29:48,1089.84,93.75,63.48,1095.71,12120.86,-10534.67,-5749.51,1696.78
19/7/2026,16:29:48,1082.76,-81.05,41.5,1086.59,8816.12,-354,-8740.23,-1098.63
19/7/2026,16:29:48,1171.88,-103.76,21.73,1176.66,4703.04,4455.57,-1135.25,-988.77
19/7/2026,16:29:48,1178.96,18.31,84.47,1182.12,6871.7,354,6103.52,3137.21
19/7/2026,16:29:48,1153.32,154.79,46.88,1164.6,7193.06,-1281.74,6823.73,-1879.88
19/7/2026,16:29:48,1170.65,114.01,29.3,1176.56,2383.16,866.7,-2038.57,-878.91
19/7/2026,16:29:48,1148.19,6.84,53.71,1149.47,5609.73,-1123.05,-5358.89,1220.7
19/7/2026,16:29:48,1036.62,-7.81,95.7,1041.06,6005.47,-5578.61,-732.42,2099.61
19/7/2026,16:29:48,994.87,16.11,76.17,997.91,2596.54,-2087.41,1196.29,-976.56
19/7/2026,16:29:48,1058.84,14.65,60.55,1060.67,3293.1,3198.25,-73.24,-781.25
19/7/2026,16:29:48,1105.96,30.03,54.44,1107.7,2497.02,2355.96,769.04,-305.18
19/7/2026,16:29:48,1057.62,46.14,80.81,1061.7,2868.63,-2416.99,805.66,1318.36
19/7/2026,16:29:48,977.05,33.2,107.18,983.47,4287.66,-4028.32,-646.97,1318.36
19/7/2026,16:29:49,920.17,4.39,137.45,930.39,3529.27,-2844.24,-1440.43,1513.67
19/7/2026,16:29:49,945.31,4.39,165.53,959.71,1884.55,1257.32,0,1403.81
19/7/2026,16:29:49,1053.71,22.22,77.15,1056.77,7049.59,5419.92,891.11,-4418.95
19/7/2026,16:29:49,1058.59,29.05,89.6,1062.78,751.01,244.14,341.8,622.56
19/7/2026,16:29:49,1007.08,32.96,88.87,1011.53,2583.34,-2575.68,195.31,-36.62
19/7/2026,16:29:49,921.63,21,132.32,931.32,4830.42,-4272.46,-598.14,2172.85
19/7/2026,16:29:49,931.88,14.16,128.91,940.86,639.44,512.7,-341.8,-170.9
19/7/2026,16:29:49,1014.4,24.41,117.19,1021.44,4198.79,4125.98,512.7,-585.94
19/7/2026,16:29:49,1063.72,47.36,89.11,1068.5,3060.66,2465.82,1147.46,-1403.81
19/7/2026,16:29:49,1064.45,88.38,111.82,1073.95,2344.32,36.62,2050.78,1135.25
19/7/2026,16:29:49,1019.53,94.24,102.05,1028.95,2317.15,-2246.09,292.97,-488.28
19/7/2026,16:29:49,972.41,18.31,116.94,979.59,4529.63,-2355.96,-3796.39,744.63
19/7/2026,16:29:49,943.12,-10.74,115.72,950.25,2063.89,-1464.84,-1452.64,-61.03
19/7/2026,16:29:49,970.7,42.48,135.5,981.03,3156.27,1379.39,2661.13,988.77
19/7/2026,16:29:49,1072.51,93.51,94.73,1080.74,6047.83,5090.33,2551.27,-2038.57
19/7/2026,16:29:49,1119.63,104.98,95.7,1128.6,2425.3,2355.96,573.73,48.83
19/7/2026,16:29:49,1052.49,87.16,113.28,1062.15,3582.68,-3356.93,-891.11,878.91
19/7/2026,16:29:49,972.17,20.26,134.28,981.61,5330.9,-4016.11,-3344.73,1049.8
19/7/2026,16:29:49,925.54,-35.64,146.24,937.7,3688.93,-2331.54,-2795.41,598.14
19/7/2026,16:29:49,976.81,-16.6,117.19,983.95,3096.47,2563.48,952.15,-1452.64
19/7/2026,16:29:49,1032.47,52.25,102.54,1038.86,4486.94,2783.2,3442.38,-732.42
19/7/2026,16:29:49,1038.82,45.9,102.54,1044.88,448.85,317.38,-317.38,0
19/7/2026,16:29:49,1016.85,16.36,118.65,1023.88,2009.42,-1098.63,-1477.05,805.66
19/7/2026,16:29:49,954.59,21.48,135.5,964.4,3234.91,-3112.79,256.35,842.29
19/7/2026,16:29:49,945.56,33.94,131.35,955.24,796.65,-451.66,622.56,-207.52
19/7/2026,16:29:49,1042.48,-2.2,86.18,1046.04,5643.53,4846.19,-1806.64,-2258.3
19/7/2026,16:29:49,1035.89,9.03,132.81,1044.41,2420.75,-329.59,561.52,2331.54
19/7/2026,16:29:49,1007.57,59.57,96.19,1013.9,3426.79,-1416.02,2526.86,-1831.05
19/7/2026,16:29:49,967.77,43.7,118.41,975.97,2413.01,-1989.74,-793.46,1110.84
19/7/2026,16:29:49,992.92,16.36,122.07,1000.53,1866.43,1257.32,-1367.19,183.11
19/7/2026,16:29:49,1048.1,6.59,96.92,1052.59,3070.87,2758.79,-488.28,-1257.32
19/7/2026,16:29:49,1051.51,41.02,80.32,1055.37,1918.52,170.9,1721.19,-830.08
19/7/2026,16:29:49,1004.88,53.22,93.02,1010.58,2492.3,-2331.54,610.35,634.77
19/7/2026,16:29:49,947.02,-6.35,120.61,954.69,4375.4,-2893.07,-2978.52,1379.39
19/7/2026,16:29:49,1000.49,-47.36,100.1,1006.6,3521.91,2673.34,-2050.78,-1025.39
19/7/2026,16:29:49,1023.93,26.37,94.73,1028.64,3877.61,1171.88,3686.52,-268.55
19/7/2026,16:29:49,1037.84,101.07,97.41,1047.29,3801.98,695.8,3735.35,134.28
19/7/2026,16:29:49,1012.7,41.02,111.57,1019.65,3331.63,-1257.32,-3002.93,708.01
19/7/2026,16:29:49,958.74,-49.32,112.3,966.55,5261.07,-2697.75,-4516.6,36.62
19/7/2026,16:29:49,957.28,-46.39,109.13,964.59,228.05,-73.24,146.48,-158.69
19/7/2026,16:29:49,1014.65,42.48,116.7,1022.22,5302.43,2868.65,4443.36,378.42
19/7/2026,16:29:49,1052.49,81.3,84.23,1058.98,3159.59,1892.09,1940.92,-1623.53
19/7/2026,16:29:49,1020.51,18.31,80.57,1023.85,3536.88,-1599.12,-3149.41,-183.11
